timestamp_s,qw,qx,qy,qz,roll_rad,pitch_rad,yaw_rad,roll_deg,pitch_deg,yaw_deg,gravity_x,gravity_y,gravity_z,user_accel_x,user_accel_y,user_accel_z
40.875,0.9998851892566805,0.009534099222953115,0.011628154764392613,0.001869565167181451,0.019115805381811544,0.02322007676113649,0.003961507282362961,1.0952549703712666,1.330412398382923,0.22697764778973814,-0.2276988300383676,0.18740675271998136,9.802565019005694,-0.04509268196163241,0.004025887280018625,0.4630103009943056
40.979,0.9997578338219401,0.019246111852772165,0.009908983490260316,0.00395890596029173,0.038578383297433974,0.019662047499378093,0.008299012679958091,2.210378543380955,1.1265523383001188,0.47549840068715327,-0.1928132757889208,0.37817125417036607,9.797808864394057,-0.041691708211079204,-0.10059392617036605,0.4486231916059431
41.083,0.9999062092458022,0.010464940239482518,0.0069133851947648295,0.005501167387285464,0.021007500320281307,0.013710764356166688,0.011147277767884625,1.203641106471844,0.7855689315067547,0.638691969159802,-0.13445725328941396,0.20598603998047066,9.803914524228118,-0.03304630671058606,-0.02412503198047064,0.37551610777188316
41.186,0.9997661940870499,0.013492004168224098,0.015273419920203242,0.007228113734633117,0.027214385304624642,0.030349313141107753,0.014872382421835058,1.5592694199978412,1.7388875541064017,0.8521247440757027,-0.2975900249883972,0.2667356438812108,9.798854079600874,0.03915596098839719,-0.013087395881210773,0.4954361363991264
41.29,0.9997951307495158,0.018004388220584897,0.002855855130629328,0.008796739500189247,0.036059982637123476,0.00539380643514824,0.01769389109235873,2.0660848144222035,0.3090423442444981,1.0137852827562772,-0.05289680321954198,0.35355847052494505,9.800481995092344,-0.14810746878045802,-0.07598114252494503,0.4411642449076556
41.393,0.9998160287666741,0.012646589468189917,0.010156151629314408,0.010238407109627588,0.025504382416805468,0.02005094803801153,0.020735582163676377,1.4612934715706196,1.1488346978141792,1.1880613437254042,-0.19662647148938608,0.2500440906611359,9.801839877463571,-0.02352106451061392,0.013175789338864097,0.4637354425364286
41.497,0.9996444141677956,0.021302294324078798,0.010138699642981306,0.012428364703550939,0.04286292759666307,0.01974196592878,0.025287467934825582,2.4558648488636186,1.1311313270101624,1.448865187237906,-0.19359688371507544,0.42014613911922155,9.796083220777529,-0.016979020284924595,-0.10428228311922155,0.45513465122247077
41.6,0.9997859277475282,0.013283393572344477,0.007604864743669967,0.01392178743722396,0.026778994215310062,0.014837160715514358,0.02804641453358309,1.5343233481425123,0.8501066889562774,1.6069411832486844,-0.14550269647355282,0.2625613061513943,9.802404782798504,-0.041144127526447194,-0.06155703415139427,0.4727421692014957
41.704,0.9996054948451989,0.017022082639584258,0.015947946429000867,0.015645011428381452,0.034553603336049836,0.03135582626759754,0.031841642918730824,1.9797756381248173,1.7965565082787838,1.8243917520059003,-0.30745620122696465,0.3386332218538385,9.796328252227157,0.06337958522696463,-0.056270077853838474,0.4166030917728438
41.807,0.9997686916393433,0.010798369167022905,0.005810252589936053,0.01766916539990945,0.021800170259902038,0.011236457365377336,0.03546531182472573,1.2490577485590018,0.6438015837148097,2.032012686672197,-0.11019361854425908,0.2137638405405987,9.804050764194843,-0.10516810145574093,0.07817093545940132,0.456738739805159
41.911,0.9995861213642928,0.015511108211042927,0.014511498253494464,0.019401234919280433,0.031590461455326596,0.02841293798330044,0.03926251896091915,1.8100001142609183,1.6279414300100639,2.249576629513038,-0.2786081927690365,0.3096311050478855,9.798150593541049,0.10631881676903646,-0.06555448904788547,0.4530672784589509
42.014,0.9994363046089019,0.024329649991083623,0.00826867429916294,0.021604864876872996,0.04901464977740577,0.015477366893620368,0.04360676050296546,2.8083325665571905,0.8867878009799526,2.498483335057696,-0.15178047714900642,0.48043667388802025,9.794048820030449,-0.08272450685099358,-0.06407068188802023,0.40931089196955206
42.118,0.9995857423982546,0.01506511487298191,0.0071827823643091605,0.023447676761270398,0.030462137036125804,0.01365355400731535,0.04711416375562549,1.7453518871191631,0.7822910199731019,2.699442738485573,-0.13389624391329433,0.2986681365478024,9.801536519346188,-0.033607316086705696,0.007624087452197614,0.47839624865381225
42.221,0.9996040151477749,0.006068839534546081,0.010537005431380057,0.025376240929070967,0.012670720951004969,0.02075914817212358,0.05089320738546334,0.7259788338805734,1.1894115765493987,2.91596598907108,-0.20357034421243406,0.12423166227190517,9.80409988775341,0.02170933621243404,0.10070168972809486,0.4088314562465918
42.325,0.9994630773041813,0.014923347442024143,0.009657456476071873,0.02752425005688238,0.030372154902703827,0.018484086975730025,0.05534488575139805,1.7401962906425008,1.0590601718620642,3.171028371188834,-0.18126311878889476,0.29776305658496816,9.800802510197832,-0.02931278521110528,0.09945967141503187,0.4312720978021698
42.428,0.9995405037610454,0.0048611699363589,0.006149895539656505,0.029280183619926275,0.010078910118868337,0.012009756175817506,0.058631062107187014,0.5774790119028547,0.6881083418555186,3.3593124071112226,-0.11777684752618378,0.09883506991538218,9.805794676778707,-0.05451252847381624,0.13566991408461782,0.44542319522129326
42.532,0.9993301560448807,0.016260346906899106,0.009936056780225537,0.031242840995046046,0.033131713629000734,0.018843878677319473,0.06281940844792665,1.8983073589778106,1.07967471786697,3.599286975574666,-0.18479098144281011,0.32480559721594204,9.799877683787416,-0.02578492255718992,-0.08072898121594202,0.42262529221258305
42.635,0.9993165018076189,0.00665178712952631,0.01469475788785727,0.03326179540529817,0.014278489450198996,0.028930963033087464,0.06675108703443183,0.8180971833184737,1.6576220790449145,3.8245555649833745,-0.28368637632180976,0.13996579184414834,9.801896786694035,0.025252312321809744,0.10889664015585165,0.434963637305966
42.739,0.9993765539969829,0.004096137903572892,0.003713314898428674,0.03487027771405702,0.008446452518060914,0.00713639333537231,0.06978590197772004,0.48394608114253707,0.40888521906212205,3.998437652837023,-0.06998601539388682,0.08283126564759753,9.80640045781736,-0.15016152060611318,0.022456686352402486,0.48788975818264113
42.842,0.9992035007243891,0.008528190893574542,0.012601323628706376,0.03688957499095136,0.0179788998843809,0.024555838435282508,0.07402520247067115,1.0301150836632693,1.406945904746819,4.241331679170852,-0.24079490637759549,0.17625641868572392,9.802458900089032,-0.06071150162240452,-0.04703938668572391,0.4104724439109688
42.946,0.9990825038703356,-0.005612111115708832,0.015679288592803584,0.0394564896845826,-0.009981829963997357,0.03177802241842329,0.0787858066410676,-0.571916728754271,1.820746565847768,4.514094206066947,-0.3115946160863177,-0.09784075817512053,9.801560334011404,0.024445656086317713,0.18398544617512053,0.459229169988598
43.049,0.9986881708114924,-0.02316010999347011,0.01797627379231034,0.04198095242880884,-0.04479720459484156,0.03785899419139319,0.08317449453168982,-2.5666907572684803,2.1691605837771286,4.765547499799771,-0.3711944688201498,-0.43886456002395186,9.790141039038831,0.04097316482014979,0.30964752802395185,0.4419335689611703
43.153,0.9988488498429636,-0.011946330700815268,0.01564432045023033,0.04374374912860034,-0.022510118600997848,0.032303395419042764,0.08716877026641665,-1.2897347921761058,1.8508482214533877,4.994402641611134,-0.3167443045597737,-0.22062292936961594,9.799400367806458,-0.01347699944022629,0.11533497736961593,0.46138913619354405
43.256,0.9988179488074693,-0.0010795385652234387,0.017560922876101278,0.04531173936481947,-0.0005654430772000873,0.03518542102980782,0.09065861336567241,-0.032397501878454985,2.0159761253988386,5.194355922361344,-0.3449922295632655,-0.005541867737635858,9.800928458531006,-0.004372338436734569,-0.14281842826236416,0.4263603334689954
43.36,0.9987433916753256,-0.010384941617763124,0.014312861609034775,0.04689277732256328,-0.01941114705412588,0.02956801761084389,0.09354763876607276,-1.112176801709214,1.694122617669847,5.359884884710377,-0.289931298140259,-0.190269960943059,9.800866603740786,-0.049861637859741015,0.02755221694305901,0.46949453225921367
43.463,0.9986852942453723,-0.0021953242471814717,0.01533207686837535,0.04886502868500084,-0.0028878488513395854,0.030843278571477596,0.09773619191927231,-0.16546155105346094,1.7671896884919571,5.5998713026549245,-0.30243207662748506,-0.028307624348738947,9.802294757730484,-0.027789227372514935,-0.04347961565126106,0.4776380102695157
43.567,0.9984737646976175,-0.0160463076023098,0.01481094154159396,0.05072763776828372,-0.030560623182714627,0.031209722053282,0.10104609748562017,-1.7509947276592095,1.7881853534294283,5.789514922193515,-0.30602405824042417,-0.29951545134261426,9.7976471037788,-0.043340509759575874,0.07458209934261423,0.5301438242212004
43.67,0.9980709752874739,-0.028330683664195135,0.016271608402612478,0.052791433129078004,-0.054896161135835085,0.03547911778014091,0.10471426267809712,-3.145318344553446,2.0328037096496323,5.999685306279238,-0.34787071594143465,-0.5377576567902211,9.786064156112706,-0.006279668058565335,0.10224840079022107,0.3167934198872935
43.774,0.9982512929674232,-0.01675859457798968,0.014842095398383845,0.05471030799423119,-0.031855705272346976,0.031471212371413676,0.10900139256099307,-1.8251974655181262,1.8031676450419067,6.2453197547935915,-0.3085872344599155,-0.31220139449061995,9.797170673618302,-0.04077733354008456,-0.008448277509380098,0.40140322238169723
43.877,0.9982780316778616,0.0036154542960452527,0.019828099566496907,0.05508853262874831,0.009410426950767015,0.0391996105812584,0.11043975480455681,0.5391777476951145,2.24597224486247,6.3277318407607615,-0.384332135255808,0.0922157997740772,9.79903230202257,0.05411083125580801,-0.39850802377407724,0.3516834339774313
43.981,0.9982967296926446,0.0030104102369101437,0.00733836115183058,0.05779900838925881,0.006859620938319533,0.01430421421912822,0.11571518167609185,0.39302732882527885,0.8195711040070675,6.629991535629623,-0.14027664505267656,0.06726489282713942,9.805766002564294,0.015845429052676566,-0.03376418082713942,0.4358802374357058
44.084,0.9983448201179878,-0.005837922542460187,0.007202381568668628,0.05675970845335889,-0.010840348308376163,0.015044205707544538,0.1135038014822838,-0.6211062065217355,0.8619694931689265,6.5032887836255995,-0.1475329600838908,-0.10629718355428572,9.805314066079541,-0.17311671191610925,-0.43450002444571423,0.42197472592046026
44.188,0.998229770876124,-0.00144773968207101,0.013849054531370709,0.05782242017592345,-0.0012892812511638488,0.027820089142728918,0.11570267590805426,-0.07387037429703479,1.5939736935560915,6.629275007901499,-0.2727964222453173,-0.012639085093022116,9.80319699718098,-0.009566721754682705,-0.1405070269069779,0.4193059788190201
44.291,0.9981469770166991,0.005619292909335365,0.007196511666977987,0.06016016987552003,0.01208507388984492,0.013690665178302773,0.12048078975467796,0.6924237289918627,0.7844173334434695,6.903040765346057,-0.1342601591517822,0.11850432798881959,9.80536485470645,-0.14810298484821782,-0.1280759599888196,0.4362813852935492
44.395,0.9980343144261823,-0.0023400421754073107,0.011434721162481353,0.06157335935625065,-0.003263613997396508,0.02311471497969868,0.1231953500834272,-0.18699130801063957,1.3243756129845567,7.058573615417033,-0.22666582433195834,-0.031997655737207774,9.804328011348215,-0.09876966366804166,-0.11636264026279222,0.41338914865178467
44.499,0.9978225066345824,-0.008598628621289028,0.017480271588413025,0.06301387898318371,-0.014967053920310858,0.035975842567038216,0.12586601917787155,-0.8575490213785453,2.0612639435183833,7.21159168300472,-0.3527389871637785,-0.14668144441880582,9.799556559395834,-0.006197212836221544,0.007892780418805811,0.4277322326041677
44.602,0.9977156001233239,0.002494068062456733,0.01767804545288014,0.06515249499459966,0.007284793796935791,0.034957453312281915,0.13054551194410366,0.4173879391875029,2.002914537319374,7.479706868771818,-0.3427579249706122,0.07139769383002599,9.800748357864597,-0.03053572302938784,-0.176685645830026,0.4169688021354023
44.706,0.9976466886507914,-0.005964204872318575,0.012255522211550792,0.06719609408048895,-0.010256743263028653,0.02525759025773236,0.13437650607527135,-0.5876681005207822,1.4471533224388096,7.699206663827114,-0.24767485183954038,-0.10055403499255358,9.803356315763137,-0.03468829216045963,-0.033448813007446426,0.41436084423686204
44.809,0.9973458991122481,-0.007051435363875641,0.0210251960184859,0.06934966413526789,-0.011159773215174383,0.04293000074501679,0.13860536178761076,-0.6394079055526332,2.459707857182942,7.941502248313952,-0.42088520865181545,-0.10934079008887379,9.797354195534673,0.09066390465181545,-0.00551879391112621,0.43950622846532816
44.913,0.9973826938814525,-0.006933620675023562,0.009406535817188286,0.07135267292843206,-0.012491345620495389,0.019754581627775877,0.14271309787016584,-0.7157013844936103,1.1318541533182336,8.17685818919796,-0.19372058175044157,-0.12247553924072403,9.804321551157631,-0.14607235424955842,-0.006741492759275977,0.4229672408423699
45.016,0.9970859508460493,-0.010101464468539238,0.01749364825832164,0.07356316545414854,-0.017582819587390247,0.036379557243243224,0.1469695901469271,-1.0074213542974166,2.084395090592421,8.420737232186411,-0.3566956262776213,-0.17231173916350434,9.798996167707225,0.0599750342776213,0.009593995163504343,0.46657915229277513
45.12,0.9969914374064488,0.0006061827057694775,0.015979727449590423,0.07584427856725241,0.00363450256298007,0.03177669942806507,0.15191156837331524,0.2082416574882387,1.8206707640839053,8.703891727004,-0.3115816480701863,0.035625494016664136,9.80198432465396,0.08664829607018626,1.160828505983336,0.44444773134604
45.223,0.9968668911845434,-0.009050281985309732,0.013392767218322825,0.0774282083112222,-0.015976886825139678,0.028106807229082386,0.15480731187644153,-0.9154081848386729,1.6104014298142129,8.869805608285564,-0.27560716721314515,-0.1566167798200635,9.801875375338106,-0.0450425047868549,0.0752579078200635,0.4062701526618948
45.327,0.9966832645816897,-0.017452766088301715,0.007877289556585435,0.0790937378551202,-0.03355568682029234,0.018464183490002842,0.15807214567746036,-1.9225992334655126,1.0579197861322978,9.056866805895599,-0.1810679586125748,-0.32896278356964503,9.799808512485843,-0.08693773738742522,0.104029431569645,0.4657668075141572
45.43,0.996587479029723,-0.007768934362431437,0.011228411882328364,0.08140616110992184,-0.013660965775226007,0.023647271465612386,0.16284638300845253,-0.782715682993113,1.3548888519797304,9.330410455355253,-0.23188717822147076,-0.13393146881557064,9.803343291869227,-0.09354830977852924,0.12435983681557064,0.3952306041307718
45.534,0.9962343200111117,-0.01705489326123983,0.016465614181911815,0.08339780451221837,-0.03125990835010774,0.03565945813376168,0.1664791579532206,-1.791060816426934,2.0431364507879994,9.538553127611333,-0.34963819511272504,-0.3063211334326862,9.795977209841336,0.0002736271127249945,0.05267288543268617,0.4935271901586642
45.637,0.996255903359333,-0.005998568653229371,0.012441673231608583,0.0853428202193357,-0.00983203866671253,0.025816918132420697,0.17078293665759803,-0.563334319612061,1.4792004490224733,9.785141483330442,-0.25315839170014454,-0.09638911846011014,9.803258079156862,-0.03399056829985547,-0.028042097539889857,0.38095836884313883
45.741,0.9959265537222763,0.004311155487549684,0.01520287087895897,0.08877266609868842,0.011291546843081876,0.029520747645648042,0.17796829770815872,0.6469579782828601,1.6914142481663945,10.196832345805255,-0.28946792389806747,0.11068559941859427,9.802102122459013,-0.02161011610193253,-0.05804162341859426,0.45390156554098837
45.844,0.9957645763502667,-0.0050232181995649855,0.013998927722848827,0.09072874840701677,-0.007466839762676683,0.028794752238130286,0.18162001941131803,-0.42781840470183924,1.6498177753697465,10.40606058735261,-0.28235111342990926,-0.0731962617266951,9.80266133027221,-0.04308437457009073,-0.0608065862733049,0.4246274617277912
45.948,0.9954218542909035,-0.01029468470909897,0.021248066600546667,0.09261679724832927,-0.016576217021981005,0.04422291396378873,0.1851847226950287,-0.9497472756524257,2.533786327895249,10.610303040725656,-0.43355277091634586,-0.16239658958543668,9.796065962544443,0.04111585891634584,0.023607925585436673,0.4072937494555582
46.051,0.995410227473617,-0.004027108703250464,0.013077231299664024,0.09471666937741001,-0.005542005352658026,0.026800496414355588,0.18966127825689955,-0.3175335167462163,1.5355553333980712,10.86679078117667,-0.2628010055012886,-0.054330650488391835,9.803327639731574,-0.12006427449871138,-0.04617148551160817,0.543606552268427
46.155,0.9943179018896209,-0.03945178278810382,0.014984790956323268,0.09772882305982145,-0.07565166662113688,0.037519246389394544,0.19452520980019997,-4.334521210521869,2.1496944686237596,11.145473530448337,-0.36786492829825307,-0.7406867752634371,9.772067718527024,0.037643624298253076,-0.173404080736563,0.43129199347297664
46.258,0.9903495707885828,-0.1007199363638394,-0.008306549390307992,0.0948378790091818,-0.20245230102779527,0.0026513581368954892,0.1906724917069625,-11.599662401604727,0.1519116312217807,10.924729044052139,-0.02600183878432155,-1.9719076370651674,9.60667232579856,-0.03621376921567845,0.4069458050651673,1.405490290201442
46.362,0.9788609241089905,-0.1790359500396943,-0.03162978204334616,0.09368552040613247,-0.36459685959031773,-0.028379972551823795,0.19606819560515676,-20.88986127824908,-1.6260526499166246,11.233880104920958,0.2782850311184496,-3.495500146348072,9.158672675029718,-0.4075020631184496,0.39429137834807193,-0.19483930702971897
46.465,0.9619267949276303,-0.25520612762775546,-0.0434499329441092,0.08762863087287719,-0.5224111346289011,-0.038874372892913976,0.192085310455945,-29.931953184876683,-2.2273374979817433,11.00567759558579,0.3811449592507787,-4.8897127413807,8.492507687769082,-0.27585700725077866,-0.1497515066192996,1.0073370722309178
46.569,0.9391806217141884,-0.32799092679570313,-0.05389310413279533,0.08635534183348599,-0.6764335064417529,-0.04459796348139839,0.19906824144887086,-38.75678504034783,-2.5552750823626997,11.40577007011154,0.4372272549651126,-6.13323268101899,7.63999595601963,-0.11179176696511262,-0.2845465749810101,0.6777522519803707
46.672,0.9174793312167331,-0.3839715248871373,-0.05861034337646605,0.08580426863061946,-0.7969827681678857,-0.04166682096556598,0.20404551063278772,-45.66374896067318,-2.3873329870541444,11.6909465878505,0.4085082857586303,-7.008375537320713,6.847849465952882,-0.32236359775863027,-0.1799200946792867,-0.21470848995288172
46.776,0.8845784910009017,-0.4541718638301778,-0.057298112690459924,0.08925098120301948,-0.9508279769281411,-0.020300181405040956,0.21156334499168203,-54.4784301209449,-1.1631147178588004,12.121686767693582,0.19907020566398104,-7.980241768963511,5.696785177809242,0.006719882336018973,0.8685191929635101,0.07012310219075779
46.879,0.8381868042520644,-0.5339201711021072,-0.05270770013421447,0.09794912156098919,-1.1325433035621766,0.016236939453193787,0.22233915354183426,-64.88995140991634,0.9303081028774587,12.739095118458293,-0.15922866854226836,-8.879012916649136,4.161132641131738,0.30758896454226836,1.1355626286491365,0.8926890548682618
46.983,0.7916637212596559,-0.5995168069444609,-0.05341686035975889,0.10485604256187507,-1.2914930616338125,0.04116116058761988,0.23235009004739285,-73.99710170204656,2.3583607815308425,13.312679529200244,-0.40355352652348,-9.418972058781534,2.7013624168413983,0.33655210252348,0.536497562781534,1.8068762551586017
47.086,0.7692500091330162,-0.6274393578455169,-0.05691766592145376,0.10646433666403723,-1.3629232511358185,0.04604827206687931,0.2377018882061053,-78.08975009033118,2.6383716433023445,13.619314976500352,-0.4514358240004742,-9.58570373674366,2.021815661277655,0.3174329760004742,-1.02923615125634,1.4622583867223455
47.19,0.7492571314615741,-0.6498818017512593,-0.052844309440090796,0.11608132350343928,-1.4201183278298115,0.0717518791639732,0.24572597210938812,-81.36678659382405,4.111079848228334,14.07906111861732,-0.7030670459690211,-9.670933993560997,1.4683260608797735,0.2867010539690211,-0.22134767843900427,1.1303720271202264
47.293,0.7270011160429591,-0.6732531847874669,-0.050583080496663206,0.12506349752542908,-1.481936330432264,0.09499368697259454,0.25380106658864426,-84.90869724087331,5.442737343916537,14.541729951448087,-0.9302026200880161,-9.72426645496832,0.8663798233795941,0.0687557400880161,-1.0342479130316793,0.267858568620406
47.397,0.7386025945546568,-0.6609085762875992,-0.0554100185203661,0.12081304132501798,-1.4498767021878738,0.07791960715560274,0.255235843947555,-83.07181584971134,4.464464631333406,14.623936638654598,-0.7633845627180583,-9.705851427097551,1.1793816534575168,0.3518043867180583,-0.9856615169024501,0.6009418985424833
47.5,0.8128276227069459,-0.5686120584177161,-0.05169075366981417,0.11541078273536381,-1.214926982793618,0.04723414240168041,0.2492500369645065,-69.6101885306375,2.7063170085362134,14.280975161545985,-0.46305300620682444,-9.182279546949216,3.41300062043958,-0.3409640817931756,-1.571449005050784,-1.9437551084395799
47.604,0.9038252021914769,-0.410546332584019,-0.04258833601949615,0.1128625106952642,-0.8508331269715339,0.015686400176284546,0.2413506420537836,-48.74914724538738,0.898764525854375,13.82837317245444,-0.15383021768971206,-7.372289634770005,6.465518602957406,-0.13331874231028795,-1.3474671172299955,-2.469362242957406
47.708,0.9692001703667514,-0.21207958713127995,-0.03668289030138298,0.11969813717189699,-0.43340535546432823,-0.02033646577163409,0.2502369124193327,-24.832297686473222,-1.1651936589268925,14.337518960012579,0.19942597299803155,-4.117732672275024,8.898413112514644,-0.30471392499803157,-2.9652750077249763,-2.466276408514644
47.811,0.9887012499016452,0.08173301581484972,-0.020477704355879117,0.12397667600418648,0.1574814292440003,-0.06079608415181618,0.24468626161337595,9.023021247369316,-3.4833590328212582,14.019490095280368,0.5958599729141879,1.5352030235327025,9.667748009190907,-0.1412074529141879,-3.3203123915327026,-0.0051855051909068806
47.915,0.9711170713117475,0.2040591302210788,-0.00023085654665890975,0.12365861023627091,0.40801511826107556,-0.050937739136319514,0.24276921679137967,23.377544253890797,-2.9185174704494674,13.909651517842573,0.49933041078040646,3.886254361899068,8.990269471795067,0.30947249321959364,-1.498132177899068,0.701007928204934
48.018,0.9460965670726211,0.30312519592734094,0.0009595027200639274,0.11408540976804353,0.6127216171890354,-0.06739977816165106,0.21868476969627532,35.10636268136221,-3.8617228287806205,12.529714347386978,0.6604892885126847,5.62716191382817,8.00475181972069,0.47374910348731536,-1.0423501858281696,1.2797312202793094
48.122,0.9147265003247166,0.38978620723600704,0.014002331892339244,0.1055749826135036,0.799783725807083,-0.0567171393862272,0.20583944400671966,45.82423201199411,-3.2496527128860313,11.793731398904464,0.5559268200237935,7.022323320620349,6.823134877125751,0.26244771597620653,-0.5279710086203488,1.1931069228742501
48.225,0.8781787278529106,0.4678930476156423,0.02016046427413664,0.09732303745691961,0.9737394140610851,-0.05569335012915982,0.1912585651491948,55.7911587712419,-3.1909939093452357,10.958308578776757,0.5459023738472,8.09775364052737,5.505054547918097,0.004466466152800108,-1.1296055445273696,1.999104940081903
48.329,0.8364557375132075,0.5393357340265509,0.02794658772313726,0.09315446000010219,1.1403519531893722,-0.053756778070682514,0.1873474352638321,65.33735407725105,-3.0800365036715243,10.734217343217988,0.526938846410367,8.89953511528621,4.086301406398135,-0.24457570241036702,-0.7636479152862083,1.4317444416018654
48.432,0.803955341535558,0.5867280338679971,0.02978858289623733,0.09229660567362465,1.2552957420317121,-0.06044543230837819,0.18474488881291884,71.92314805916004,-3.4632681621137795,10.585102415593909,0.5924274470290759,9.305911765448494,3.0374800301720315,-0.2909210390290759,-0.8493748934484948,1.8488381058279693
48.536,0.7691623049794624,0.6316206169693476,0.022841742278176348,0.09446163045193808,1.3676175981882779,-0.08428958606703485,0.17569027129073664,78.35871636400678,-4.829437538545805,10.066311046467664,0.8256494895311894,9.57116985176734,1.9718670312819846,-0.0024891375311894004,-0.40633221176734047,1.2777020327180155
48.639,0.7399311340876401,0.6650922933955319,0.02858869788276343,0.0966273482354687,1.4564525466206297,-0.08633207613323643,0.1827150729703092,83.44858398244284,-4.9464635990365515,10.468802534623583,0.845607339242967,9.706673311053901,1.114760270323771,-0.36223992324296705,-0.49397751105390064,1.8859463616762295
48.743,0.7132631690842808,0.6936291714131485,0.03391212682135541,0.09478497690567812,1.5352086270339753,-0.08321070008811852,0.18392620126466555,87.96097500112049,-4.767621925378059,10.53819507433908,0.8151059403068852,9.76687958514481,0.3477275878586301,-0.4035257643068852,-0.9753355931448091,1.5857420761413699
48.846,0.6948731383378991,0.7124895177406777,0.03362983112390828,0.09153711370079877,1.5884035763411715,-0.08379957957343571,0.17666950861660058,91.00882108783519,-4.80136223452857,10.122417212381345,0.8208609576915722,9.771071170921326,-0.17205946916065962,-0.4906396536915722,-0.4339441549213259,1.2584397011606596
48.95,0.6707126014615823,0.7348599861728742,0.028003590249322214,0.09664991410129674,1.6529446144220843,-0.10467463211727977,0.17260183222321884,94.70675017526462,-5.997414642404668,9.889356522615575,1.0246705411159773,9.720431603078648,-0.8003178943638645,-0.22065345311597728,-0.06265491507864773,1.1975406223638645
49.053,0.6741596776697548,0.731068935492191,0.02371216931162912,0.10239469512168879,1.6413937313623068,-0.1180173534611456,0.17483041391850737,94.0449333262902,-6.761896262627301,10.017044848055717,1.1547113350093632,9.714523878536781,-0.6869618229127266,-0.3459084310093631,0.12989963346321964,0.5338157109127266
49.157,0.7353462660184138,0.6650105644513314,0.008443837698637213,0.1302133627006723,1.4536285110782599,-0.16146896306102276,0.20687872731892726,83.28677866467012,-9.251490105750394,11.853277946412335,1.57665407684227,9.613067279788343,1.1315248102624196,-0.68170648484227,-0.5822324877883425,-1.1171673622624196
49.26,0.8385463529455395,0.5196482616663568,-0.026489363343255107,0.16156735975603892,1.0823793923191092,-0.2139704949906027,0.25176536210823786,62.01577101181971,-12.259606303286658,14.425092676384926,2.08243322117993,8.462839598235295,4.496784052394206,-0.7854770851799298,0.33349020976470456,-1.792798012394206
49.364,0.8945443999289305,0.40509088652635855,-0.038442043634813176,0.18496999618926777,0.8156021655492001,-0.2204159709571111,0.31226542453504874,46.730561847699434,-12.628904873120595,17.8914909137192,2.144158830855988,6.968092379290069,6.559384155676655,-0.636626790855988,0.7610004607099317,-0.8642631156766551
49.467,0.9415303877794041,0.26164971500460926,-0.05127495261789343,0.2059874626282006,0.5026435884561732,-0.20579655772000482,0.377758330865047,28.79935621784939,-11.791274195676717,21.643958034473737,2.004030772309367,4.624768589036001,8.412646739374184,-0.4055682283093669,0.30940770696399955,-0.133185059374183
49.571,0.9630532228910388,0.15218337543628266,-0.04439501108271693,0.21771034222325794,0.28067034589497225,-0.1523621171304532,0.42308713168064493,16.08122625425888,-8.729706269252869,24.241107011596657,1.4884408168536902,2.685067103838896,9.31408651358823,-0.19148468085369008,0.4113558481611044,-0.3885396735882285
49.674,0.9745477841900962,0.06490326889399643,-0.025882851302637795,0.21301234711981512,0.11609030691464628,-0.07817815691659671,0.42583720365180733,6.651484628587629,-4.479278441432477,24.398674528901484,0.7659124411783722,1.1324725432114566,9.71123746343999,0.5597585908216278,2.002236936788543,1.1477790405600121
49.778,0.9773946436248714,0.04108585985683619,-0.0005008452227557193,0.20739192821153368,0.08020543136252617,-0.018021773787669757,0.41745158445773456,4.595432711098957,-1.032571577372973,23.918213940477223,0.17672996865241838,0.7856040158810434,9.773885708786025,0.9096502633475816,1.415871344118957,1.3579223072139754
49.881,0.9781033035695637,0.034016560538082996,0.011015412301715582,0.2050255151128462,0.07112229935078564,0.007599969793185086,0.4135179991749868,4.075007582066052,0.43544619357641856,23.692836105420998,-0.07453218626612157,0.696888378177844,9.781924173779464,0.7158315302661217,1.485443717822156,0.7277277622205354
49.985,0.9786557756542866,0.022402369465603745,0.021114987861110573,0.2031875092333643,0.05248035034903242,0.03223042621431626,0.41026729719996824,3.006902582367475,1.846667393988133,23.5065846017976,-0.31602906806627357,0.5141714002549798,9.788411638222874,0.5026758920662736,1.1417209357450202,0.697311217777127
50.088,0.9776134272892476,0.008853681175300686,0.018363435352831116,0.20941915708802666,0.02501784404366648,0.0322019861623026,0.42245371978094626,1.4334168762185946,1.8450378990386176,24.20481518305056,-0.3157503012025972,0.24519721777306064,9.7988483543571,0.22003398120259718,1.5016256222269395,0.3135808536429021
50.192,0.9767634841418406,0.032188157235444624,0.01606859271408628,0.21127900726070178,0.06973788523238716,0.017790003757924198,0.4266672753228177,3.995686495983495,1.0192921328509308,24.44623413234375,-0.17445736434663323,0.6832570817726623,9.78161404821478,-0.09354833165336679,0.6615572142273377,0.5557485117852181
50.295,0.9761425885821037,0.02124817810683196,0.01723291151842709,0.21540006602591413,0.04894065085727589,0.02449228841620171,0.4349676601279313,2.8040927407452227,1.4033047568655135,24.921811150011283,-0.2401718587472086,0.4796254935374139,9.792319738663302,-0.14747923725279144,0.9656909384625861,0.3823250773366986
50.399,0.9755646612970206,0.010764634798177661,0.013574750879058961,0.21902840090879264,0.02695936093153001,0.021772293083827752,0.44199806786473617,1.5446575997465493,1.247460504025202,25.32462384158632,-0.21350400935821068,0.26429577220735917,9.801112833897042,-0.3751513586417894,-0.5035865722073591,0.5745362541029593
50.502,0.9783594548396818,0.011212980512743028,0.010578366132762166,0.20633745264440623,0.026312511405480927,0.016072265323918002,0.4159223418129307,1.507595851923899,0.9208729702749645,23.83059479107854,-0.15761392008260314,0.25798369954268097,9.80233907100578,-0.17260738391739686,-1.583654731542681,0.3148759529942211
50.606,0.9781820352335365,0.003795720873830682,0.008055602257475774,0.20755868018874482,0.010771124091404188,0.014184496841183713,0.41825047435004736,0.6171399510491435,0.8127118035164747,23.963986959602405,-0.13910269583607057,0.1056197452136847,9.805444605393074,-0.12411718416392944,-0.3401247292136847,0.42184418660692735
50.709,0.9779572603939837,-0.0017221955079861815,0.007172070144466957,0.20867484825720886,-0.00037524671617726244,0.014747248448341126,0.4204484056293081,-0.021500053113100614,0.8449550955207986,24.089919145563837,-0.14462102333762505,-0.0036796442959440324,9.805932909204847,-0.05638324866237496,-0.259540235704056,0.3734977227951539
50.813,0.9773811229292425,-0.010732968573000743,0.009140905226364864,0.21101513637373642,-0.017127797011543794,0.022399807225699443,0.4250777991161398,-0.9813504811182435,1.2834144159392236,24.355163854064646,-0.21965653955906267,-0.16792195630231643,9.803101663311493,-0.03399170844093735,-0.00915323569768356,0.3811147846885081
50.916,0.9770046900947964,0.00018835981587649134,0.011000879705525499,0.2129337472056862,0.0050541545579981815,0.021417243116724913,0.42923368849005367,0.28958172518010383,1.2271176393939507,24.593278775313177,-0.2100228461992553,0.049554515268612896,9.8046256304915,-0.029267953800744734,-0.1500566512686129,0.48009295350850145
51.02,0.9765423756381881,-0.008885175889575946,0.00839866875782592,0.21497791652965492,-0.01374568891251757,0.020224923881125827,0.4332323344161557,-0.7875699611870269,1.1588027793618587,24.822384310646004,-0.19833230663302376,-0.13477215733023457,9.804068021069325,-0.050530125366976236,-0.07101793066976544,0.44714985093067483
51.124,0.976123327715128,-0.0009992038617376512,-0.0007097859535034644,0.2172135973779903,-0.002259045662075645,-0.0009515960667717458,0.4379194124174047,-0.12943378216427123,-0.05452243842727031,25.090934098366183,0.009332301218376016,-0.022154431933739532,9.80697053576178,-0.16726422921837603,-0.09270515206626047,0.40596080823822156
51.227,0.974166877973693,-0.008465320315857054,-0.0023290797042811746,0.22565860851886163,-0.017545327784027735,-0.0007172798633630608,0.4552622083288944,-1.0052732321984104,-0.04109710890042375,26.084603109051287,0.007034363016816127,-0.17205815730920657,9.805488030090105,0.026466348983183875,1.0095759573092067,0.5079454499098937
51.331,0.9712689974364691,-0.01936730928325126,-0.09294697779745824,0.21822534515541903,-0.07945637111981142,-0.17296124437721166,0.448913127677068,-4.5525147205903576,-9.909949322145069,25.720827583913458,1.6877862727881663,-0.766794685826484,9.630194827062228,-1.2139904887881663,-0.740737354173516,3.3632956129377742
51.434,0.9599563316191713,-0.019736014913720915,-0.19599742992120645,0.19919673331626478,-0.12507722190680853,-0.37732530213037446,0.4331162093934547,-7.1663969284813716,-21.61914731556911,24.815730836949374,3.6132444797731544,-1.1373719296620597,9.045888481680816,-2.0578542797731547,-1.2172495423379406,4.1677494943191835
51.538,0.9394293418257368,0.030019044847018863,-0.2891927701456204,0.18149079965342138,-0.05838607883863028,-0.5874600807311524,0.39934815174364513,-3.345275899771602,-33.658983258309654,22.88096365126083,5.435517082744891,-0.47632707984886036,8.1489579429637,-1.9466572187448907,-1.9931539761511394,2.9828500730363015
51.641,0.9067542543375258,0.06491013247399105,-0.38030061480524585,0.1701612156801854,-0.016671503351642254,-0.7920131453007575,0.37797479654549937,-0.9552067801873075,-45.379010544615035,21.656360604373084,6.980316375514312,-0.11483754117442713,6.887615308425969,-0.8784009755143121,-1.115117170825573,1.1190548595740326
51.745,0.8803045243777508,0.10724838101502579,-0.43224603119532606,0.16347812589336583,0.0785635908730578,-0.920793028527297,0.3282511210062091,4.5013621804187265,-52.75755433968333,18.807403854093863,7.807174236901863,0.4658023716222437,5.916781860542681,-1.298464476901863,-0.12122361962224365,1.975028723457319
51.848,0.8402782226032942,0.1474476844442424,-0.4974229428169015,0.15735979451579613,0.1951317431171679,-1.0808370158374745,0.2529365982496606,11.18022532964467,-61.9273993490018,14.492199564101638,8.653226134576311,0.8948437582823128,4.527491702051892,-0.38333608657631046,-0.6411955102823128,3.105884817948109
51.952,0.7858569703531167,0.16413959882075352,-0.5783569296383221,0.14488021323050082,0.3153105231681299,-1.2750085562595395,0.13020825545476655,18.065962213595807,-73.05260911673999,7.460383495319403,9.381109539530625,0.8865091108921128,2.71774435950712,-1.077718779530624,-0.1542792628921128,2.1398588804928806
52.055,0.7365780000868457,0.18696868930218374,-0.6363835092942925,0.1323313572323933,0.7277386734843807,-1.409225635379188,-0.2707361740880849,41.69635457910408,-80.7426812888693,-15.512040136766386,9.679271925181055,1.0494182323171084,1.1779920933869938,-0.38043143718105377,-0.20711461631710826,2.6554465226130066
52.159,0.6687246622666484,0.2197912134510373,-0.6954990615812364,0.14415340407252675,2.1717200458057593,-1.4572633676183175,-1.6503077388368614,124.43039290862782,-83.49504060355095,-94.55566833313027,9.743863057044216,0.9163905529377492,-0.6281799742553229,-0.7800296890442162,-0.2176614169377491,1.518341750255323
52.262,0.6196867382513309,0.23652020785298586,-0.7357428019897915,0.13685418164169177,2.7008255023714427,-1.3540283457017532,-2.1632272103956316,154.745902487184,-77.58010954979126,-123.94378928352825,9.577493381943103,0.8998698639683405,-1.907643506202776,-0.24993799794310334,-1.1630897439683405,2.1325768582027758
52.366,0.5681044052906158,0.24766790445876333,-0.7719177237929409,0.14163693545373668,2.9446259540854114,-1.2444424859804553,-2.379149705270927,168.7146394137774,-71.3013022934482,-136.31523694181783,9.289362658120357,0.6152748366671119,-3.0832494678963975,-0.4068881621203566,-1.515008244667112,0.7956294198963976
52.469,0.5495645359874206,0.26208353871415435,-0.7815098005225406,0.13613769208862128,2.9348387607881943,-1.1953363264413084,-2.3534433228700284,168.15387454456814,-68.487726603759,-134.84236972369698,9.12383494544545,0.7382489482984944,-3.5196410866172982,0.23722115055455006,1.2574363237015058,0.9448720786172982
52.573,0.5402759644745712,0.2705414711119168,-0.7865864366513263,0.12724375150018416,2.905948018764245,-1.1650217276022956,-2.3234126597998075,166.49855695959457,-66.75082803265138,-133.12173947379392,9.010641343935331,0.9037904689031893,-3.7641405870773426,0.24991261606466963,0.2735202670968109,1.0649403630773429
52.676,0.5381355060929757,0.2703337534951958,-0.7884197568881945,0.12539587613480738,2.9065967848143193,-1.1588688401982425,-2.3267787296369864,166.53572851615522,-66.39829355257994,-133.31460106901056,8.986652349637954,0.9142400219246511,-3.8185722107952706,-0.06110550963795269,-0.09586548592465116,1.2055166747952706
52.78,0.5486267145117197,0.2672651612752516,-0.7802845638304796,0.13687242651632875,2.9241486674088937,-1.1926006273026843,-2.333699073484176,167.54137731133346,-68.33098258909827,-133.71110756423383,9.113962607225737,0.7812131790197236,-3.5359073182164895,-0.3942058552257368,0.21423654898027633,0.5830588462164896
52.883,0.5597118308314465,0.26641513054205734,-0.7708851665085662,0.14656638326242838,2.926330889246436,-1.22569772157706,-2.32443884523764,167.66640941258595,-70.22730640516659,-133.18053556837953,9.228799875430644,0.7086508722330898,-3.2410362232678978,-0.19796508343064367,0.4495165997669104,0.9007721992678976
52.987,0.5710330199580715,0.27336521854234497,-0.7594515194663333,0.1497535875668364,2.8688818604893465,-1.250742974013921,-2.253072772050254,164.374822527679,-71.66229366663848,-129.09156077432056,9.308987140996285,0.831044722455689,-2.9714259334609565,-0.44087009299628477,0.5233412055443112,-0.3499303705390435
53.09,0.615510011563737,0.2645196205600798,-0.7185851001442387,0.18658041122865576,2.820236412579101,-1.387789887653319,-2.1681104653654386,161.58764366989845,-79.51450341346985,-124.22357918358449,9.6432329635169,0.5637175639497438,-1.6933781383482103,0.08633096448310162,0.9007421320502562,0.20977517834821025
53.194,0.6699733811846366,0.2693406758677024,-0.6543427651042709,0.22455915608777052,1.591945147024068,-1.5037061679817556,-0.8780058846328604,91.21173814081241,-86.1560170531446,-50.306031577113174,9.784937185501336,0.6573126878211428,-0.013903460809903123,-0.34252221750133494,1.0990817841788574,-1.1299065631900969
53.297,0.7452036652667838,0.24069497217752517,-0.5626417357102315,0.26489942408089456,0.23707576176733752,-1.3096137554860052,0.5007025437050144,13.583440574117402,-75.03534098162585,28.688142545761973,9.474398403574222,0.5947612792516197,2.46156107197307,-0.008054355574222072,0.40547426474838044,0.3955710800269303
53.401,0.8064077667154441,0.19142095290764247,-0.46411262908651657,0.3125123999001344,0.03757903426222117,-1.0515046228829013,0.7176259464628658,2.1531200614027908,-60.24677702968548,41.11693800140338,8.514152018465957,0.18284938878367507,4.863438136490846,0.8756189735340438,2.621638787216325,1.4538389835091543
53.504,0.8538178958732249,0.1734330765734187,-0.3616183373664152,0.33188574346790956,0.08256005143546348,-0.8221814891118531,0.7054612416655338,4.730342503635051,-47.10752931989043,40.41995175749371,7.184925426634025,0.55045305793131,6.652149806244742,-0.3938525226340248,0.9092208220686899,-0.1625833102447416
53.608,0.8933173758814854,0.13326436554271961,-0.2659091556845958,0.33692283352099883,0.0714556572001109,-0.6002904322413357,0.6992008724016759,4.094107579899948,-34.394108249512456,40.06125902048123,5.539799280846643,0.5777599309008346,8.07180688508939,-0.9071293928466426,0.6617664130991656,-0.8212956450893909
53.711,0.9185444795976538,0.07931935890796615,-0.18328859541611797,0.341159448196135,0.02244225410968236,-0.4015424319493408,0.70667709265757,1.285846443244926,-23.006686646116293,40.489614887854174,3.8329536835632463,0.20256796240014774,9.02467070204049,-0.683886755563246,0.7880959495998523,-0.0225508060404902
53.815,0.9309798012879539,0.027242005739427592,-0.10118692783309985,0.3497080044163043,-0.02049555591589648,-0.20897720602808906,0.7208028701686933,-1.1743088527552545,-11.97351191984537,41.29896232158235,2.034554991504465,-0.1966131194060438,9.59162021077887,-0.5844527435044651,0.28754362340604384,0.23844585322112977
53.918,0.9318016288928189,-0.015011334288708739,-0.03340305210173832,0.361115799080919,-0.05219258610407641,-0.05143104759300382,0.7407909618566849,-2.9904149056367264,-2.9467819630155905,42.444195615824796,0.5041619509138312,-0.5109438290115805,9.780695585225304,-0.5089477669138313,-0.04899664298841955,1.2027521347746966
54.022,0.9297553941793512,-0.03890662501479621,0.022354302997691887,0.36543325883373695,-0.05617656314097971,0.07006091911238509,0.747018913310077,-3.218679975528321,4.014194973947111,42.80103094911653,-0.6865254731861201,-0.549282983136536,9.767508381317274,-0.06006182281387995,-0.2595199208634641,1.3499421866827266
54.125,0.9253513568654061,-0.05701949098942821,0.043998307789744694,0.37220665349547066,-0.07340395325096677,0.12419286507972614,0.7602933835692035,-4.205736720855994,7.11572701470597,43.56160207023641,-1.2148309006572948,-0.713686781284311,9.705260741527155,0.2959542286572948,0.21117610128431097,1.8046267384728445
54.229,0.9246079480095556,-0.05352405836219431,0.037928482880065624,0.3752289272436438,-0.07100640086008442,0.11053042391642674,0.767105638164189,-4.068367087696936,6.332926798203108,43.95191550749768,-1.0817660723895672,-0.6915289509171832,9.722593217587077,-0.10511629561043279,0.09330195091718319,0.782272902412922
54.333,0.9273185976728952,-0.017184525894699935,0.027528243149184162,0.37286338826555393,-0.0113659637171387,0.06391336936926337,0.7642462718991674,-0.6512217510908727,3.6619663193195033,43.78808588842986,-0.626371763786345,-0.11123602382875022,9.786344259248903,-0.4839375482136551,-0.35777394417124975,0.2973700527510985
54.436,0.9304761322810232,-0.00631392672848576,0.020785605060471005,0.36570788917780456,0.003456251569700527,0.043312665502818544,0.7490468829804185,0.19802862787930606,2.4816329327733784,42.91722505220764,-0.42463451338476244,0.03386360297319603,9.797744015151455,-0.3410960466152375,-0.349727458973196,-0.20696875115145374
54.54,0.9295708506071939,0.023357943351929825,-0.0008485541691758956,0.36790178056052963,0.0428219806888372,-0.01876554168809122,0.7533174452281387,2.4535187638610854,-1.0751863390044292,43.1619102451499,0.18402286641897136,0.41975291163631007,9.79628460579866,-0.3850271384189714,-0.20917700763631003,-0.14329373379865906
54.643,0.9285628841852789,0.02547711641205879,-0.010523001798444412,0.3701501763960036,0.03956352541877689,-0.038412701923531495,0.7578842168174905,2.2668230291544686,-2.200885699912414,43.42356698322001,0.37662073226349513,0.38761213719029836,9.79209694882215,-0.34790583626349514,-0.43068448119029834,0.4304060271778489
54.747,0.928548991281582,0.0248674678613064,-0.02108319256903378,0.36977544378070903,0.03064479875446379,-0.05757611793686994,0.7570754971285784,1.7558176326585373,-3.2988685585301245,43.37723075823621,0.5643370708651388,0.29998858468670353,9.78615243696444,-0.23890158286513885,-0.22341552868670353,0.30234769103556225
54.85,0.9286480974427628,0.024660176635479546,-0.008436817751605414,0.3700451417198583,0.039590363729139315,-0.033926934773913474,0.7577142064464315,2.268360751067498,-1.943870174360872,43.413826106484876,0.33265762389004405,0.38793790553155316,9.793676127313974,0.06935092010995597,0.028428086468446856,0.6920467286860266
54.954,0.9294225164058041,0.020234487034745032,-0.007993260506551723,0.36837543256685573,0.03174312792382465,-0.029770405693341422,0.7542369656976741,1.8187472585790239,-1.7057186006207006,43.21459488723017,0.2919152445451085,0.3111146605401968,9.79771617051643,0.04787769145489151,0.04782153945980322,0.41042935748357046
55.057,0.9279548952216364,0.00971303043008007,-0.010086487943288062,0.37242936543059535,0.010517236461893984,-0.02595736209124236,0.7631928503756569,0.6025932614076277,-1.4872472951210638,43.727729281084464,0.2545352641229075,0.10310589118302535,9.803154082973563,0.018256247877092513,0.08354093281697467,0.5485659250264376
55.161,0.927680071858725,0.018544715528683513,-0.00831899005984814,0.3728224405887277,0.02821994238949754,-0.0292666726244413,0.7638508516674333,1.6168835970205364,-1.6768568217715512,43.7654299780174,0.28697728650241155,0.27659774319129127,9.798897219865774,-0.01897159050241154,-0.12345163119129127,0.5958951321342258
55.264,0.9269360995684435,0.010383568104638427,-0.01381649223493633,0.37482096175718177,0.008897467360678792,-0.033404180747152144,0.7683794759388591,0.5097873281222985,-1.9139185749039787,44.02490103577062,0.32753388012793416,0.08720763363873714,9.801141024697252,-0.035599104127934156,-0.010634577638737139,0.5170782713027489
55.368,0.9266394325134523,0.019920313951657758,-0.00435797019120469,0.37539785734474723,0.033661236100521665,-0.023034657359935068,0.7694327023246293,1.9286467617532965,-1.3197886492542386,44.08524646254707,0.22588090826231855,0.3299658462330763,9.798844286731079,0.07083968373768146,-0.16246228623307626,0.4236586892689207
55.471,0.9257634517448092,0.009390454873026617,-0.010553188580357338,0.3778392263669844,0.009415342168787375,-0.0266388274770407,0.7748788494263491,0.5394593689430678,-1.5262923856115629,44.39728770608301,0.26121608417275116,0.09230213667118674,9.80308601782803,-0.017139468172751138,-0.10187376867118673,0.5294907261719715
55.575,0.9247622494659281,0.02165773653602036,-0.010359530789896836,0.3797873148653943,0.032213677310562634,-0.0356184040634331,0.7787956767975549,1.8457077524915795,-2.0407842258263384,44.621705383534426,0.3492358335068002,0.3156645537412901,9.79569493308699,-0.019014529506800215,-0.03330140974129009,0.45552293891300977
55.678,0.9246886299376842,0.012439213366866287,-0.012025502404197069,0.3803308966238592,0.013864870943131786,-0.03170703746964356,0.7802114102897063,0.7943985885350207,-1.816679427873737,44.70282093755002,0.3108988173802932,0.1359000916645572,9.801128613095386,-0.08596546538029315,-0.16940080366455718,0.497947418904614
55.782,0.9248609819054168,0.00468419928555933,-0.007657997815412902,0.38019939176103446,0.0028417844494807833,-0.0177279547733022,0.7800316742458259,0.16282225524115698,-1.0157369879090183,44.69252282080929,0.17384894590906458,0.02786496330600064,9.805419373378493,-0.020702833909064577,-0.03265077930600064,0.3548679946215074
55.885,0.9239395870817312,0.014540923563538487,-0.010265794023727836,0.38212408251538105,0.01903401897389597,-0.03008736035527252,0.7840321128224976,1.090568954376169,-1.7238787650463485,44.921731067453905,0.29502222686099344,0.18657087448235474,9.800785794743852,0.006484181139006562,0.019219213517645273,0.44564626125614737
55.989,0.9236087952563422,0.004116438707516507,-0.011019503988980483,0.3831558674864997,-0.0008406496805923464,-0.023512063146971775,0.7864882809532935,-0.04816567874696216,-1.3471419859665634,45.06245913512305,0.2305615588496223,-0.008241971770154968,9.8042859218549,-0.019985654849622253,0.02259941977015497,0.4421461341450996
56.092,0.9228871189839475,0.009286821015385999,-0.00193972385342816,0.3849537089577263,0.01564950689419504,-0.010730490629090669,0.790268910072429,0.8966506964982609,-0.614811825151575,45.27907322755378,0.1052319021120196,0.15345961432408858,9.805234591459268,0.11970144988798043,-0.1438879823240886,0.4842698085407324
56.196,0.9221687104953484,0.012215656662199904,-0.011838951354830684,0.38641362080868136,0.01338727734002984,-0.031280714277197134,0.7933918673928885,0.767034490754833,-1.7922529082380134,45.45800550161559,0.30671993916035806,0.13122088243185598,9.801324041114816,-0.06264332316035803,-0.006789666431855981,0.39246403888518344
56.299,0.9215961099876158,0.007504260893544671,-0.005525764700900553,0.3880383512600351,0.009544746122756622,-0.016009612444260638,0.7969645845572427,0.5468736693578108,-0.9172832246962564,45.66270711652703,0.15699956234110263,0.09359190851349199,9.805296563188975,0.11100613365889739,0.021267675486508014,0.4028489648110263
56.403,0.9206612765504711,0.014480839579510284,-0.014729845563527527,0.38981553431745625,0.01519184703758901,-0.03842156166812017,0.8007513246062163,0.8704287182621727,-2.2013933258849088,45.87967133944638,0.3767075556689615,0.14887076278595135,9.79863143063813,-0.10870185966896151,-0.029225362785951337,0.38079920136187084
56.506,0.9202306279893072,0.01204810103254671,-0.006167788250652057,0.391142420302388,0.017353712650225374,-0.020778117163917777,0.8036427342768016,0.9942944937407006,-1.1904984197208244,46.04533691041423,0.2037563329959081,0.17014258358910328,9.803406747555346,0.06903517900409192,-0.01699647158910328,0.4813118364446556
56.61,0.9197878175147369,0.004435668795738482,-0.010479884763473219,0.39225102626909186,-6.175886146208964e-05,-0.022760296982891618,0.8062108609280026,-0.0035385221093108847,-1.304068957584031,46.19247972878311,0.2231909613693001,-0.0006055122830111587,9.804459925366514,-0.012615057369300076,0.09153601628301117,0.4180430506334858
56.713,0.9190362577319038,0.014015002288207403,-0.007562079293825468,0.39385117956120547,0.019811380333649722,-0.024941886443190238,0.8094969525599289,1.1351084794466098,-1.4290648262893648,46.380758910385744,0.24457971976092888,0.19421707100256708,9.80202578501061,-0.014860551760928875,-0.10328656700256707,0.43483463898939156
56.817,0.9185288231187693,0.005153326475906811,-0.008183895504594939,0.3952357121777475,0.002998374179483175,-0.019109008066796187,0.8126604822188763,0.17179418588538714,-1.0948655129088658,46.56201580820789,0.1873906372125062,0.029399643000215567,9.80516544531894,0.004042002787493781,0.03281596499978443,0.4604098746810603
56.92,0.9179358738809006,0.01781027153455485,-0.0071067185381578106,0.39626508832092705,0.027078384102123692,-0.027165542516497904,0.8146815641454171,1.5514771250858328,-1.5564709343785275,46.67781527264885,0.26637970941242906,0.2654272928303032,9.799787712120816,-0.05580380541242902,-0.15535352483030318,0.42271526387918357
57.024,0.9172165752279153,0.008850540990632441,-0.008740305203250734,0.39819471256698175,0.009277644006647389,-0.023084032948331307,0.819056006510373,0.5315698454057385,-1.3226176620803183,46.928452357884055,0.22636500592370223,0.09096030900654113,9.803965223636741,-0.015789101923702198,-0.014387253006541131,0.3898228563632582
57.127,0.9158426606764809,0.01903653242484773,-0.006375737257376817,0.4010351372295038,0.029770354019050437,-0.026950243412536802,0.8250683911531707,1.705715639901918,-1.544135204388608,47.272936622725624,0.26426904398001727,0.29180873329923634,9.799094781435896,-0.015406611980017276,-0.04773211729923632,0.4329798265641056
57.231,0.9151026790020265,0.010095531559946311,-0.009250416182999282,0.4029883334865634,0.011024963941282325,-0.025069550018951656,0.82950379335509,0.6316839031193952,-1.436379410378043,47.52706644933863,0.2458313250400015,0.10808565716076962,9.803322571982685,-0.07354194904000147,-0.10329984116076962,0.4383236680173148
57.334,0.9149530974606397,0.002216743975804831,-0.009783297926870623,0.40343549989434624,-0.0038381794497373187,-0.019692416644383745,0.8306188911260279,-0.21991148348379305,-1.1282923621363636,47.59095684535783,0.19311104833688605,-0.03763363526784879,9.805026304529058,0.02703648766311395,0.08549179526784878,0.4174766714709417
57.438,0.9141592625893189,0.014544251180877415,-0.008454427917978409,0.4050059629540285,0.019751948910655927,-0.027241773385006274,0.8338270323882431,1.1317033097386087,-1.5608386414126738,47.77476979976453,0.26712702893162127,0.19362290035485774,9.801448990984564,-0.04219367693162124,-0.12183566035485774,0.44976888101543544
57.541,0.9133876133191746,0.007140456635896752,-0.007711490721887786,0.40695529806721886,0.006768937220563112,-0.019900166968611,0.8382186208387173,0.38783153452728036,-1.1401955789070597,48.02638928333511,0.1951480565529297,0.0663693165492379,9.80483357073665,0.06807182344707033,0.11070587545076209,0.41288358926335
57.645,0.9126751234132237,0.018903918618319127,-0.011088017328751797,0.40809780302673304,0.025475245949141474,-0.03567637817225831,0.8404992614585297,1.4596240749435536,-2.0441058975830555,48.15706036543644,0.3498040243902798,0.24964975259561367,9.797579351327006,-0.1009415923902798,-0.11564690459561366,0.4727817846729945
57.749,0.9121412074322214,0.010924276164607807,-0.010670099295999144,0.4095915366256754,0.011192953125708354,-0.02841808149155072,0.8439582097815171,0.6413089743908514,-1.6282361313246958,48.355243505897484,0.27865861479118725,0.10972267905761003,9.80242619508574,-0.04893944679118725,-0.028363807057610033,0.4248625969142612
57.852,0.9113887546602547,0.0028482379323878353,-0.007919089572909694,0.4114604640057738,-0.0013252674428802995,-0.016779400327765908,0.8481548448461702,-0.07593223120313605,-0.9613888215414167,48.595692983258715,0.16454785739985606,-0.0129950644242261,9.805610849453783,0.03167059860014396,0.0369241444242261,0.4695361025462166
57.956,0.9105031735627647,0.013894161402060274,-0.010345518890885015,0.41313907277083556,0.01676157052037162,-0.03032434480692172,0.8516787572633971,0.9603672488281929,-1.7374569739360697,48.79759829213956,0.2973452732036175,0.16429745494521397,9.801114280264361,-0.07719773720361747,-0.10208184694521397,0.5075333837356393
58.059,0.9098108951491146,0.009301576890150248,-0.002939328883862135,0.4149083948066558,0.01448799128280469,-0.01306744345133463,0.8556329743873362,0.8301007541270363,-0.7487093587873405,49.024158244619635,0.12814877078160755,0.1420666295799392,9.805133551630338,0.11114202921839247,0.01586529842006079,0.45565595236966416
58.163,0.9086125696530162,0.015291052091733325,-0.012347779943021334,0.4171773176060147,0.017496589887657964,-0.03520412745851105,0.8605438332860581,1.0024807564340765,-2.0170479248132964,49.30552973330065,0.3451755699016376,0.171473991005342,9.79942342673036,-0.0819556899016376,-0.027899511005341993,0.35129230926964006
58.266,0.9068445388831506,0.0248604521918348,-0.005197952624930762,0.4206993243435656,0.040745612525063826,-0.03034967976512871,0.8681129354339723,2.3345516313615424,-1.7389085601154708,49.73920734107955,0.29759361881441326,0.39929769594429376,9.794347777573273,0.03262768518558673,-0.0020749679442937374,0.21279347842672713
58.37,0.9049432359299449,0.007022958395717139,-0.004115354054812228,0.4254544413459752,0.009209926158246175,-0.013424624540966374,0.8788972954131846,0.5276898984946422,-0.7691743277451234,50.357105652638204,0.13165133841080603,0.09031233026988125,9.805700413947791,0.078924565589194,0.034118885730118745,0.5890919380522082
58.473,0.9030600823030837,-0.014827687991537542,-0.01336143913467084,0.4290502294182162,-0.03825786469687743,-0.011408966285741945,0.8872896543683967,-2.1920141803136257,-0.6536856167800603,50.83795240093068,0.11188530507806041,-0.37507894691946897,9.799186010178875,0.06040407092193961,0.494724346919469,-0.3328419621788754
58.577,0.9051298576211881,-0.027396839870676263,-0.009706447738636909,0.4241404706934311,-0.05786240181401654,0.005669056162655086,0.8762569650474739,-3.315271416433266,0.3248129919427664,50.20582586616275,-0.05559613599277283,-0.5671308679784066,9.790430054305517,0.00773797599277283,0.3661265959784066,0.2645693616944822
58.68,0.9067206794850714,-0.0458315949894446,0.004308944141472432,0.4192117690323584,-0.07966957212575872,0.0462567996614131,0.8642901044806215,-4.564730238419081,2.650319394381146,49.520175261660576,-0.45347867648802825,-0.7796583604762715,9.765435931432355,0.3721198044880283,0.5260101124762715,1.481231668567645
58.784,0.9163771379948596,0.00221457193369529,-0.028579885483646716,0.3992884005042496,-0.01879314338247077,-0.054174909053696076,0.8223484165136565,-1.0767677995997873,-3.103993644281858,47.11709355549885,0.5310334872507484,-0.1840231312205714,9.790882898012523,-0.13381075925074837,1.1794728592205714,2.044440069987477
58.887,0.9176130450077232,0.028377246356209848,-0.01652380332521346,0.396116138833755,0.0390523711611832,-0.05283085808479346,0.8139998392604176,2.2375360475142076,-3.0269851963132686,46.63875531394934,0.5178712417359775,0.38235504661787434,9.785850141674391,0.7695132622640225,1.3692536093821257,1.302885530325609
58.991,0.9137467175798726,0.06148042655045885,0.00041809263769054686,0.4016054263350143,0.11306505607424977,-0.04863685745048493,0.8254479672197921,6.478150523464504,-2.7866866606922,47.29468472934722,0.4767936297481118,1.1051595823140201,9.732858733807408,-0.2279311977481118,-0.28678504631402013,1.169230114192592
59.094,0.9139148666201454,0.04220598920437185,-0.0018268880665018394,0.4037015401580165,0.07579590557763731,-0.03742522199581687,0.8304877116311301,4.342785493970713,-2.144307267700482,47.58344081394153,0.3669434783848907,0.7420988962641314,9.771995226760723,-0.4339449023848907,0.4208543917358686,0.3882921412392779
59.198,0.9096159686165975,-0.022245801317204737,-0.013253972198816095,0.4146423111338221,-0.05148515547724591,-0.005663978860886087,0.8555509340753049,-2.949882116421044,-0.32452208398008847,49.0194576809903,0.05554634369373601,-0.5046837891425116,9.793847960667913,-0.524556311693736,0.4472539971425116,0.4190833833320884
59.301,0.9100763936744221,-0.0005921757623026438,0.0034936287361055987,0.4144253872082153,0.001817890167866457,0.006849816986594704,0.854634598482125,0.10415743423707673,0.39246560376889617,48.96695551888347,-0.06717562987131427,0.01782762081270619,9.806753724382373,-0.37311944212868575,-0.46769432481270623,0.3966059876176278
59.405,0.9116292783664272,0.013129240974295478,0.006767338657432555,0.41074795797914987,0.029501656853294464,0.0015529908977023402,0.8466697471607413,1.6903204263369735,0.08897982406057706,48.510603153718996,-0.015230175611791102,0.28928043317816954,9.80272073828134,-0.25277552038820894,-0.4902847051781696,0.5298560057186599
59.508,0.9110350505211513,0.0007692804643648764,-0.00047457988473439814,0.4123279273871991,0.0010103191600707652,-0.0014991100189320143,0.8500152993202756,0.05788702383325709,-0.08589267711058136,48.70228917260118,0.01470176644904261,0.009908187183692348,9.806983974999145,-0.10084645444904262,-0.12476777118369235,0.43944808100085453
59.612,0.9106888357212392,-0.016486685796469516,-0.009277078689087013,0.4126596291074993,-0.03769416273522281,-0.003290290625336604,0.850968127904435,-2.15971643700757,-0.18851976620324784,48.75688222907294,0.03226782194062916,-0.36957711949261257,9.799980639797957,-0.04662526994062916,-0.6306584245073876,0.2502329602020428
59.715,0.9111652535669844,0.00490886838544974,-0.006779915465015336,0.41195608558397895,0.00335998393019669,-0.016400458406214288,0.8492035809536214,0.19251289843204933,-0.9396770487559314,48.65578113603865,0.16083208539416055,0.03294686896350877,9.805625759946851,-0.002900157394160552,0.17284321903649125,0.32594671205314896
59.819,0.9115343942774222,0.014177606453219584,-0.000290448202996301,0.41097926853357436,0.025612716346165226,-0.012183213104510501,0.8469905951581057,1.4675005485010022,-0.6980466917969288,48.5289863898332,0.11947781516916087,0.25113780743233627,9.803055842611553,-0.07161965516916087,-0.24635199143233627,0.5055918213884478
59.922,0.9106549015206761,0.004738279595195629,0.0008892889751551896,0.41313969575431037,0.009364837784186427,-0.0022954740684144677,0.8517979209299633,0.536565680858528,-0.13152097610187338,48.804425867305106,0.022511694419153995,0.09183937978316904,9.806544128893492,-0.056012406419154,-0.13012590778316904,0.5021035351065084
60.026,0.9059820220015667,-0.004461509289306128,0.005246675041837102,0.4232601364950631,-0.003643007105953336,0.013283935271499063,0.8740792838102573,-0.2087289319072945,0.7611134263818676,50.081053922145415,-0.1302717217736223,-0.035723739473300604,9.806069655725691,0.12070008977362232,0.1075109794733006,0.5839368802743081
60.129,0.9050436384814138,-0.01503579068963633,0.001337156039715036,0.4250507610349461,-0.02608534734734752,0.015202903315606942,0.8779446461006355,-1.4945803101357904,0.8710621963297235,50.302522867673105,-0.14908912954254527,-0.255760431034738,9.802530695354601,-0.04712932645745474,-0.17017719296526201,0.4869737046453988
60.233,0.9015264706872298,-0.04654863962977239,-0.012915313860699933,0.43001911755958533,-0.09519436427890875,0.016747398090136343,0.8893437515821783,-5.454235306612396,0.9595552283902679,50.95564350198995,-0.1642340555515718,-0.9320310496114137,9.761229138666776,-0.15641561644842825,-0.2213506063885864,0.04969366133322417
60.336,0.8959590280438696,-0.09160996290056647,-0.03940679916343237,0.43279572426692736,-0.19959787927196007,0.008683154647466202,0.8991272373531021,-11.436116082045048,0.4975081141592196,51.51619594559018,-0.08515462754856762,-1.9444116772333722,9.611933256054455,0.08515462754856762,0.5565250372333721,0.5052817679455472
60.44,0.8905990853618518,-0.07548002660827327,-0.03263071506559418,0.44729327199294566,-0.16438242904827258,0.00940178466813166,0.930099336585922,-9.418419410574725,0.5386825813747494,53.290766514291136,-0.09220194388342695,-1.6047771137912548,9.674370171571685,0.06827286388342696,1.5234182417912547,1.2037895964283152
60.543,0.8949291974395543,-0.053996168546883216,-0.021276511251583915,0.4424177385926261,-0.115735335321628,0.009695935205273846,0.9176901335769416,-6.6311462544606465,0.5555361656945029,52.57977155475552,-0.09508654667569527,-1.1324310359534304,9.740934631617787,-0.14899006932430475,0.1034805959534304,0.18006193638221468
60.647,0.8964493106477356,-0.02630304761936777,-0.032737259190691086,0.44115196359736913,-0.0761644549936963,-0.03549475736287145,0.9159844616618815,-4.363901820052905,-2.033699791733438,52.48204375278858,0.34802399676359014,-0.7457528199604245,9.772409172215303,-0.28580838876359016,-0.08697916403957551,0.4453079877846964
60.75,0.8971643141980026,-0.006962759633586483,-0.027555482258029576,0.440781588437448,-0.03682824358816867,-0.04331902521039438,0.9141332805674407,-2.1101029244818,-2.4819973171764107,52.375978888962706,0.42469682453518787,-0.3607541963863086,9.791156112381183,-0.08968970453518782,-0.22790117161369144,0.25905748761881675
60.854,0.8958679543827919,-0.011404392727776592,-0.02135954232215394,0.4436601380429517,-0.03941223357065028,-0.028155029697575093,0.920202616093527,-2.2581546447820795,-1.6131643737365475,52.723726199056266,0.2760798978525539,-0.3862625714968776,9.795500503591551,0.01106906214744613,-0.14496300450312238,0.5035755284084491
60.958,0.894548676935189,-0.012967862703524558,-0.010463403887983678,0.4466598440754242,-0.03255451208343717,-0.007135661697227588,0.9263119840712936,-1.86523614648859,-0.40884329928429863,53.073767199674656,0.06997884040129108,-0.31919758428993816,9.801554206557222,0.15495451159870893,-0.06845351171006187,0.4879501934427779
61.061,0.8929366512932991,-0.02280161027264467,-0.020398682116231845,0.44914153349919017,-0.059086461618783004,-0.0159478373941165,0.9325507394740952,-3.3854048771179923,-0.9137437750437883,53.43122155366963,0.15639381176267575,-0.579050174249175,9.788640910327866,0.02546719623732427,-0.06224916975082506,0.32378829767213624
61.165,0.8924585285208436,-0.008702268797723036,-0.02151002674020886,0.45053231197974947,-0.034938166652217245,-0.030557062203776873,0.9355287355459471,-2.001809493096765,-1.7507906985951411,53.60184815999328,0.29962647537867615,-0.3424089745119935,9.796439611890934,0.0018799326213238543,-0.021313041488006557,0.4882789721090681
61.268,0.8914995633230668,-0.015486647077062713,-0.017355059720098313,0.45242402042686003,-0.04333614293175376,-0.016931803063512108,0.939604707024309,-2.4829780903651844,-0.9701208550859216,53.83538412311912,0.16604225871458253,-0.4248036405871558,9.79638815254198,0.10196343728541749,0.03236672858715578,0.349541767458021
61.372,0.8899286622813339,-0.022815729850379014,-0.026680775611600666,0.45474669293389436,-0.06494357618084301,-0.026740405175249605,0.9456741214371415,-3.720992821648646,-1.5321123590115868,54.18313595309029,0.2622119018751462,-0.6362265049423994,9.782827288311074,-0.022921101875146177,-0.019430287057600637,0.3678884476889266
61.475,0.8886046180132942,-0.01337805163568963,-0.022938173946939103,0.4579046852303003,-0.04481580838448638,-0.028518054917129176,0.9522762528064744,-2.5677566758980777,-1.6339641866738064,54.561410216344,0.27963865691306755,-0.4391828755157146,9.793169539194837,-0.0020613289130675394,0.11374738751571462,0.4867632288051631
61.579,0.8876310331868166,-0.006391955247438101,-0.015544810262763508,0.46024846627198446,-0.02566521304572571,-0.021714043110694577,0.9569752580966123,-1.4705083878241845,-1.2441230264079208,54.830643387378544,0.21293288690182982,-0.25161178369786047,9.801459079952334,0.055072809098170195,-0.15518257630213955,0.3971148160476652
61.682,0.8862402221015724,-0.014363146607030385,-0.019990029774419087,0.46257147281097893,-0.04397698522866227,-0.022145783229884905,0.9625902258482792,-2.5196956493115117,-1.2688599130840015,55.152357341651125,0.21716594413058585,-0.4310375729868034,9.7951158524738,0.0077674078694141835,-0.10497381901319663,0.326884987526201
61.786,0.8848550332269336,-0.024274488006774064,-0.021391904642741908,0.46474154733650314,-0.06289102152326209,-0.015295339129900984,0.9677164720375357,-3.6033901025493393,-0.8763583783646272,55.44606961304054,0.1499955421761451,-0.6162936467530791,9.78646680259526,0.051008729823854904,0.10421133475307909,0.4647510694047394
61.889,0.8847003856484942,-0.01010893347320755,-0.02154479427855185,0.46555220860493696,-0.03797198000384748,-0.028712848118729636,0.9693602312275105,-2.175634193975616,-1.6451250150033538,55.54025007716194,0.28154821175748485,-0.37214826694482195,9.795891244387422,-0.04225741175748482,-0.13036241305517804,0.4361833636125798
61.993,0.8833500976515223,-0.01753582666884268,-0.017754459733593183,0.46804901337536736,-0.04762378447962777,-0.01495211186023038,0.9748495896006704,-2.7286418551233047,-0.856692904398703,55.8547671441788,0.1466298973027441,-0.4668177418500722,9.794785851110325,0.10701835069725593,0.045665933850072116,0.4899327328896774
62.096,0.8826512692849083,-0.00795905387109995,-0.025080142323468748,0.46929135593174076,-0.037624286163326276,-0.03681212219800234,0.9780370466412591,-2.1557128043510563,-2.109179236865385,56.037394979983794,0.36093495040186585,-0.3686444042736645,9.79342004944014,-0.12642996640186585,-0.08122229972633555,0.42908292655985925
62.2,0.8817081131377192,-0.015012122850993466,-0.02050375608673232,0.4711104280112734,-0.045818815316576736,-0.022013698880338942,0.9819479893427879,-2.62522473992922,-1.2612920373152872,56.261475490698885,0.2158709086542538,-0.449079080665872,9.794333909465466,0.013848259345746211,-0.05821741533412805,0.3420243785345338
62.303,0.8810343600175953,-0.004181122195750719,-0.023733482877952215,0.4724380345358028,-0.029818428895302784,-0.03787844269172896,0.9849861815200648,-1.7084701274117913,-2.170274900764227,56.435551079806515,0.3713850635210383,-0.2921762698726746,9.795608973510364,-0.09859355152103827,-0.11940390612732543,0.38382165848963723
62.407,0.8798592659309961,-0.01455860154340855,-0.021443518053874747,0.4745270222125841,-0.045999473202831404,-0.023919937385321034,0.9897658750510892,-2.6355756743473666,-1.3705114583960887,56.70940734650019,0.23456045662640973,-0.4508287556920004,9.793823759146804,0.02387360737359029,0.03446276369200041,0.44782248085319587
62.51,0.878555392642246,-0.02109517129810624,-0.02223323596579429,0.4766561643633927,-0.058305270573311564,-0.01895710725377279,0.9947565828731189,-3.3406459272190663,-1.0861622374180193,56.995353841485425,0.1859012157582296,-0.5713731877950092,9.78857611801883,0.015103056241770413,0.011432715795009152,0.35735380198117106
62.614,0.8777232580798026,-0.009148631466652202,-0.024487580387372122,0.47845432715655906,-0.03952576158960021,-0.03423892239903356,0.9988366416938077,-2.264659321124392,-1.9617457485405625,57.22912399207601,0.335715509566755,-0.38730109232576904,9.793596987854851,-0.07249562956675498,-0.11042377167423095,0.500693228145149
62.717,0.8765962089169058,-0.017636785920241992,-0.02446011858713553,0.48028088957777154,-0.05446137286619764,-0.025944982662977522,1.0031548757742708,-3.1204068117214243,-1.4865380061287037,57.476540579836104,0.25441389994854746,-0.5336590298523116,9.78916393811903,-0.05340962794854745,-0.06935378614768839,0.4333390378809696
62.821,0.8758206685644645,-0.006367373108942971,-0.019242280008675602,0.48221089549599916,-0.029726699910696746,-0.027568231583437016,1.0069893304536446,-1.7032144437348447,-1.5795433183701997,57.69623864969841,0.27032740229835744,-0.2913760525304512,9.798942396584359,-0.002321706298357429,-0.16806228346954882,0.4427038434156412
62.924,0.8743616984385038,-0.01473208764800954,-0.02307701950168745,0.484501844236103,-0.04815905143143795,-0.026082833982886994,1.0126308736348473,-2.7593103923748603,-1.4944363049598242,58.01947526392213,0.25576535043375426,-0.4719526894793697,9.792297674417926,0.0026687135662457617,0.012514353479369689,0.5067783575820748
63.028,0.8736374963849477,-0.019858499122186044,-0.016750758215697742,0.4858832956812301,-0.051000726597593485,-0.009970520134875732,1.0153767177522803,-2.92212638614271,-0.5712687232785878,58.176800543051876,0.09777927088365829,-0.4999224766194794,9.793761572121108,0.14151152911634174,-0.0025882033805205706,0.42395558787889165
63.131,0.8730661865106165,-0.012749735238430012,-0.025984150630675617,0.4867419256024299,-0.0476017051553317,-0.032966075962830715,1.0179642471779033,-2.727376803026639,-1.8888170197778715,58.32505505850598,0.3232397520880291,-0.46640009457570786,9.790568727834449,-0.03130497608802907,-0.02653895342429219,0.2692165041655521
63.235,0.8719476128428524,-0.02171188024261247,-0.02377944801203943,0.48853914128370957,-0.061148262621768354,-0.02025604437105049,1.0220299912317337,-3.503537372784893,-1.1605858520909211,58.55800503337087,0.19863744276337414,-0.5991844232792509,9.786662873177555,0.07893988523662587,0.053601399279250894,0.47891244682244505
63.338,0.8715000185341106,-0.010023827557277121,-0.02224224014277179,0.48978824335581805,-0.03928607323030736,-0.028953164612666,1.0245970818324601,-2.2509261897384962,-1.658894135853289,58.7050884904202,0.28390401602871257,-0.3850179876944303,9.795325857715735,-0.011112504028712555,-0.021776372305569724,0.37453314228426393
63.442,0.8703112714322715,-0.017904464508325585,-0.02098758433526218,0.4917288300195376,-0.05183780595554431,-0.01892430918321972,1.0290688634379825,-2.9700875004708123,-1.0842830463991562,58.96130270332087,0.18557962277476436,-0.5080547253949749,9.792072793827394,0.048925361225235636,0.02947312539497482,0.45914507817260564
63.545,0.8691293237547069,-0.018558745301432172,-0.03147283400233366,0.49323346630412646,-0.06339123873751279,-0.036408380426329094,1.0335181106116844,-3.6320504377656957,-2.086046537335374,59.2162257883845,0.3569781080543164,-0.6208498810205991,9.78081597084858,-0.11768730805431638,0.05133777702059916,0.5182600611514196
63.649,0.8687259103537628,-0.009430989149935547,-0.022124551885192304,0.4947088571347388,-0.03830190407696862,-0.029113267701621967,1.0358866679436398,-2.1945374509252225,-1.668067367137473,59.35193412704031,0.2854734853135036,-0.3753757998758721,9.795654490540716,-0.04139686931350356,-0.0697050881241279,0.4124910374592847
63.752,0.8676349643293334,-0.016829099133651864,-0.01937825496393959,0.4965388537971007,-0.048473054153375696,-0.016914706478897635,1.0400006291408441,-2.7773014230975135,-0.9691412929434239,59.5876467407207,0.16587461651820906,-0.47512112816279517,9.794079564980482,0.06384455148179094,0.02525442416279511,0.42842341101951753
63.856,0.866818377695832,0.0057358791774027385,-0.02034363264796954,0.4981758087156708,-0.010334346763459526,-0.04099490337782687,1.0434559588253427,-0.5921144535709129,-2.3488349450960824,59.785622548468744,0.40192441751906527,-0.10126198556495121,9.798237176802846,-0.13870453751906525,-0.3677479824350488,0.43862324719715495
63.959,0.8654382109800821,-0.00403205303478094,-0.02144516283422759,0.5005402586355396,-0.02846674469097565,-0.03308855449404811,1.049191898752821,-1.6310243272693477,-1.8958345226975895,60.114267697853826,0.32444024399479254,-0.2789828695254854,9.797660745636579,-0.05164873199479253,-0.12302567447451462,0.448771310363421
64.063,0.8641418695360881,-0.013823433612041268,-0.022331022633206455,0.5025625010145537,-0.0463670382100978,-0.02470257680310877,1.0540944837719566,-2.6566355979604266,-1.415353393915902,60.39516512815436,0.24223353310531343,-0.4544199440465094,9.793471010315601,0.040129610894686585,0.0619830320465094,0.47210430968439887
64.166,0.8630353935827338,-0.017242315884157387,-0.014075275994069658,0.5046528495630809,-0.04398293779025755,-0.006892209592770486,1.0584009222484365,-2.520036705968213,-0.3948945211853287,60.64190587758941,0.06759136434627253,-0.4311913714756494,9.79728301156146,0.1429845396537275,-0.03303278052435066,0.40129088443853966
64.27,0.8619256173436839,-0.014152588918186,-0.02467441019229381,0.5062362174669894,-0.049418885019925654,-0.028209647629088504,1.0628021860661332,-2.8314935398840273,-1.6162937506980004,60.89407971886706,0.2766153232072056,-0.48426101070251426,9.791129875375995,-0.037324523207205584,-0.03739293329748583,0.48880289262400467
64.374,0.8605548048314787,-0.014562443023602017,-0.014243256294542038,0.5089503834213781,-0.03957396867732625,-0.009691235060080438,1.068367193078991,-2.2674213837937107,-0.555266867211822,61.212931133664526,0.09504045451740684,-0.38798239737482976,9.79886146301357,0.10117800148259318,-0.07145593862517025,0.4092840649864318
64.477,0.8585017802695036,-0.028943751130218746,-0.019075490895010833,0.5116376434467261,-0.06927172997161371,-0.0031352656807664765,1.0750043317324025,-3.9689777669433552,-0.17963749116013,61.593211166548144,0.030747500157123797,-0.6788013332239774,9.783431521774324,0.0506113718428762,0.13800412522397743,0.601789198225676
64.581,0.8567800442108577,-0.0382271033834604,-0.029383365791186895,0.5134230830647685,-0.0958291291760473,-0.011097036086284576,1.0802637660662302,-5.490604656201491,-0.6358133328484791,61.89455455650267,0.10882639930927668,-0.9383007610585506,9.761403459370499,-0.02746752730927668,0.22521417705855062,0.34623993262950137
64.684,0.8516217190273986,-0.08795281909373662,-0.033548296388276375,0.5156348137041635,-0.185569561223664,0.03356845932849716,1.0857456702260266,-10.632352664210483,1.923331044279445,62.20864452855422,-0.329144056978659,-1.8084343475518994,9.633196686476934,0.0037085689786590104,0.6885534035518992,0.010222553523066225
64.788,0.8517648621425614,-0.0759101454709439,-0.02857409226063684,0.5176077575590654,-0.15964389375595425,0.029911004707228375,1.0897145401821724,-9.146921337251095,1.7137743307201245,62.43604402647764,-0.29329348520601534,-1.5582884903970124,9.677962849289717,0.04921686920601531,0.5006231543970123,0.6211131827102836
64.891,0.8513271873024851,-0.06718286997663987,-0.02740895436051679,0.51959333267682,-0.14340149830054366,0.023149634188850764,1.094303011654485,-8.216300628473599,1.3263763362929057,62.69894407625733,-0.22700818539739326,-1.4011479335918167,9.70373643252711,0.06429044139739326,0.2812669895918165,0.7819864234728904
64.995,0.8526997217196668,-0.044749516527934276,-0.014922746367996498,0.5202672169093066,-0.09199361054867541,0.021115738619777173,1.0947138274612815,-5.270845626609271,1.2098427042146302,62.722482088144034,-0.20706666022258974,-0.9007085378589794,9.76335477835627,-0.09443974777741027,-0.04688303014102069,0.5644361496437309
65.098,0.8560304973699622,-0.022486356861005603,0.0037313438821293676,0.5164225289435851,-0.03466625779177504,0.029617540760563308,1.0851360170794333,-1.9862302629812147,1.696960085136964,62.173713976287544,-0.2904167590249603,-0.33975482999528744,9.796809366399467,-0.05894780897503976,-0.8088410100047125,0.4256936096005326
65.202,0.8568307480139129,0.006591359926465503,0.012476400013341998,0.5154046591513752,0.024161069735485274,0.014586408315994571,1.0832555796236933,1.3843273243645704,0.8357396347610154,62.06597284643532,-0.14304383381584512,0.23689935427342373,9.803094723481566,-0.0244597261841549,-0.4044029142734238,0.5438394685184349
65.305,0.8553529986271406,0.0006016849697749212,0.005131675217194532,0.5180198370952809,0.0063461788508411094,0.00815550847662713,1.0891107293610438,0.36360926418837836,0.46727621549390197,62.40144821480264,-0.07998018501214564,0.06223448849843635,9.806476382393768,-0.09709500698785435,-0.15316499249843635,0.39688332960623285
65.409,0.8543859161738363,-0.00023029841641585997,0.0010443977006502092,0.5196379147443696,0.0006918913120239757,0.0020239823322654557,1.09285559680122,0.039642452060742954,0.11596564544785568,62.616013313960686,-0.01984918118047757,0.006785363657483657,9.806977565429959,-0.06629550681952244,-0.025928627657483657,0.5112417305700419
65.512,0.8532943499791855,-0.0042906810126788755,0.00936418509664939,0.5213277801801113,0.0024417051961148433,0.020455941472265433,1.0969021223984363,0.1398994025525435,1.1720391123274367,62.84786215237284,-0.20059742748564957,0.02394076923691635,9.804918995670208,0.11923855548564957,-0.009583321236916348,0.3936549003297909
65.616,0.8522711773323318,-0.0033882651360345696,-0.0021012463759551266,0.5230850262735464,-0.00797378696719184,-3.696193000079076e-05,1.1009432589807568,-0.45686433995651304,-0.00211776259170329,63.07940222297574,0.0003624856474352123,-0.07819810007182204,9.806688224153419,-0.14393696564743522,0.05426902007182204,0.5115310718465818
65.719,0.8512958260067883,-0.007939715425722563,0.004296875926788107,0.5246083438143623,-0.00901096424603967,0.01564694546009428,1.1044897334072554,-0.516290220641357,0.8965039371347864,63.28260023976518,-0.15344333277232935,-0.08835851308112883,9.805401415382942,0.024226300772329346,-0.03607270291887117,0.4171015606170574
65.823,0.8501014078860757,0.003976953227056144,0.0023588122683199965,0.5265987240374063,0.009246054022435307,-0.00017805773031374087,1.109201660333667,0.5297598726355013,-0.010201956456655972,63.55257376602261,0.0017462121519597126,0.09067475839086259,9.806580649693036,-0.11181998015195971,-0.11938965439086259,0.4446372223069641
65.926,0.8492519183917567,-0.004889046056039195,0.0032360926715944887,0.5279553049651114,-0.004887335991993151,0.010659113262957327,1.1123776693631873,-0.28002372540359105,0.6107222033193745,63.734545679109566,-0.10453194431456886,-0.04792719047013438,9.806325767433563,-0.05339998368543114,-0.047789129529865616,0.4496779205664385
66.03,0.8483919557971474,-0.014235691810219908,0.0026976423088709497,0.5291702534566253,-0.021305591196417093,0.019644788876624547,1.1151664328767965,-1.2207204555857816,1.1255634920561324,63.894330058499456,-0.19264405316253852,-0.20888781239341347,9.802882389920558,0.04428375716253852,0.08924241239341346,0.42919221807944297
66.133,0.8472941035656019,-0.003202782937384189,0.0050522586024956614,0.5310903114607088,-6.099137098271541e-05,0.011963717216166963,1.1197957263072507,-0.0034945481440262697,0.6854705037743694,64.15956903419212,-0.1173253758850144,-0.0005980995691497668,9.806298149579705,-0.04539236811498559,-0.08554658843085025,0.4066331944202961
66.237,0.8465302800299125,-0.012289079063419963,0.003213509734346588,0.5321890048501924,-0.017389625037681395,0.018521951118675984,1.1223084533267176,-0.9963521219741691,1.0612296274477475,64.30353768747605,-0.18163438887534475,-0.17050220702996483,9.803835318189295,-0.005012435124655268,0.03171354302996482,0.4808832658107072
66.34,0.8457373331479133,-0.0006371760377730124,0.002855850984985324,0.5335914180735142,0.0019699792130127717,0.005510610812856873,1.1256935753710224,0.1128714946341352,0.3157347421158547,64.49749089375142,-0.054042286725215584,0.019319280309675314,9.806832067321936,-0.10867545727478442,-0.15332212830967532,0.43959998867806327
66.444,0.8446579046489952,-0.009285823066023872,0.00496699667156517,0.5352028835385887,-0.010371914406970278,0.018331451236593854,1.129471012464565,-0.5942669209903311,1.0503147882067019,64.71392209658757,-0.17976647369851811,-0.10169845099049768,9.80482485514148,0.012262913698518091,0.02033957899049768,0.4463930168585204
66.547,0.8438398060463247,-0.016133483453743738,-0.001687317376842357,0.536349928128473,-0.029045255685029588,0.014459238071565248,1.1321700227592757,-1.664170565630556,0.8284533164755682,64.86856399533686,-0.14179680674785675,-0.28477700175768894,9.80183884405707,-0.04006420125214327,0.11727344175768892,0.4685222919429304
66.651,0.8428258246457763,-0.006023394216370888,0.003356218905422005,0.5381422524081718,-0.0065416267376825895,0.01214060003486648,1.1364535257684885,-0.37480760321914564,0.6956051427542295,65.11399063929633,-0.11905993970149044,-0.06414854801226522,9.806067442891987,-0.029300356298509564,-0.026781955987734793,0.43557879710801295
66.754,0.8411443377241278,-0.0018905447601732669,0.012714484878215334,0.5406579055460395,0.010571031192762356,0.023435855122082985,1.1426680396073952,0.6056754724464276,1.3427755877754077,65.47005605399133,-0.22981439265127612,0.10363970410514872,9.80375913395792,0.038381752651276135,-0.09406807210514873,0.4378871060420799
66.858,0.8401476500063421,-0.00608026561953106,0.0035267822347147186,0.5423121964015614,-0.006391952283410079,0.012521167193582448,1.1463652899388364,-0.36623188868840695,0.7174100347699397,65.68189289378626,-0.1227918780646163,-0.06268053534773865,9.80603091496095,-0.0207826019353837,-0.03303578465226134,0.4212578770390518
66.961,0.8391972684205871,-0.011174834676553355,0.01108554978006455,0.5435992810255093,-0.006706810622343982,0.030760040907284056,1.149496113794174,-0.3842719426538192,1.76242052163714,65.86127588709597,-0.30161615205909104,-0.06574208448366871,9.802140310929282,0.11018351205909105,-0.006045155516331294,0.38207613707071886
67.065,0.838416237088188,-0.003999632123118485,0.001838852543484423,0.5450126924678785,-0.004702464668968777,0.007443216932086662,1.1528036023004937,-0.2694313788412947,0.4264649162088784,66.05078101929614,-0.07299495444388669,-0.04611562357661407,9.80661991136028,-0.1184376855561133,-0.020885800423385933,0.4398121446397205
67.168,0.8370856387196954,-0.011342913822721136,0.005622725785787011,0.5469253666726274,-0.012842968724036839,0.02182259265286052,1.157339005081768,-0.7358479043058269,1.2503424570421067,66.31064045705504,-0.21399718004873544,-0.12591754334742025,9.803856332036315,-0.01572198795126456,-0.012871120652579754,0.46650480396368543
67.272,0.8360257731893653,0.0001302094502481834,0.0019483649802101552,0.5486866988387151,0.0023558144185856244,0.0031148833282645064,1.161591261444014,0.13497822350102218,0.17846966838521922,66.5542768000194,-0.030547611402210257,0.023103338552393687,9.80692521023717,-0.12738431659778973,-0.09967639455239369,0.42036358176283173
67.375,0.8350358249869164,-0.008515583396491359,0.0037227173228953007,0.5501170759061849,-0.010127176954634134,0.015586971481606607,1.1649868297226709,-0.5802444978826858,0.8930676812868343,66.74882853143492,-0.15285523968750975,-0.09930346245303762,9.805305864583977,-0.03857740031249024,-0.029913569546962393,0.44112619141602316
67.479,0.8331229999723008,0.0027273951680188706,0.0020364816259730192,0.5530772830042275,0.006797227560677842,0.0003763587537096967,1.1721157103065019,0.38945245161684405,0.021563768170369233,67.1572833015412,-0.0036909502104963236,0.06665989265695915,9.806772753337231,-0.07766792178950367,-0.07623152465695915,0.45880256666276864
67.583,0.8321718172873583,-0.00597339898333188,0.004652652467622502,0.554466173758379,-0.004782823671602945,0.014368202244996561,1.1754465765828004,-0.2740356105381132,0.8232373478286974,67.34812788129557,-0.14090411113616902,-0.04690013134777685,9.805875555458803,-0.045742712863831,-0.03445874065222315,0.46448558054119715
67.686,0.831096950778697,-0.014461172345350026,0.0010036946717902583,0.5559385986759291,-0.022926906379102257,0.017748314720006403,1.1789205307947426,-1.3136149728141235,1.0169035269262803,67.54717079586155,-0.17404858449498667,-0.22478906418965425,9.802878453130797,0.006545024494986645,0.10992948018965425,0.46748268286920336
67.79,0.8295835917073897,-0.003926458411151368,0.0059439459901424385,0.5583370996094374,0.0001228126501868915,0.014247056898663821,1.1847950671983254,0.007036646526525444,0.8162962307761809,67.8837569383828,-0.13971616032745626,0.0012043014232906019,9.806004637170096,-0.042144847672543756,-0.10170643742329061,0.44042741882990377
67.893,0.8282328284724108,-0.012503068852834587,0.00464369146596553,0.5602253932475929,-0.01551215144734876,0.02170289245772999,1.1892677451882263,-0.8887808091008355,1.2434841410542348,68.14002251032518,-0.21282355821425203,-0.15208574391221918,9.803510853748655,0.002247654214251993,0.04679779191221917,0.43334957025134635
67.997,0.827055072282348,-0.0004758963349812285,0.004269008941687332,0.5621044889496741,0.004012199752564924,0.0075964909911801735,1.19388403801336,0.22988211238540332,0.43524687290377545,68.40451660620187,-0.07449807063968363,0.03934640210309874,9.806638103759743,-0.13607783336031642,-0.17813506610309876,0.4924379282402569
68.1,0.8259491086815036,-0.009017887607806021,0.004876609776398554,0.5636514581267502,-0.009400915288013808,0.01822256248115556,1.1975855700320388,-0.5386327695632039,1.0440759220836553,68.6165987686047,-0.1786987800302773,-0.09217811171752238,9.804938497600885,-0.0223054919697227,0.0012476077175223727,0.49413753439911545
68.204,0.8247887934092079,-0.0070897169975815315,-0.006107649326877204,0.5653634926303405,-0.018602234421301277,-0.002058508564543237,1.2018269093837355,-1.0658295218535485,-0.11794385283986089,68.85960961293968,0.020187779234992334,-0.1824212050869178,9.805282451694302,-0.18290552323499232,0.0723474370869178,0.4028630763056995
68.307,0.8234795243591235,-0.0092855072403034,0.0027984915229713235,0.567263096597829,-0.012119574668279664,0.015144230993619024,1.2063303817992346,-0.6944004779860895,0.8677005199055833,69.11763957550136,-0.14851379631878472,-0.11884012994133297,9.805155260158735,-0.04770465968121529,-0.019948534058667033,0.4652058758412654
68.411,0.8222069436717496,-0.010705648252075609,0.012057034541616378,0.5689602435948624,-0.0038865713645333676,0.03201439994427783,1.2105995983886726,-0.22268413596416334,1.8342900004509777,69.36224766790339,-0.31391159136856545,-0.03809597837314321,9.801900693704066,0.10333568736856541,-0.0671919736268568,0.40145901829593456
68.514,0.821163938105607,-0.00914134845829866,0.0008652998847206249,0.570618501066487,-0.014027024582778715,0.011853828833361883,1.2144930729814838,-0.8036893077194749,0.6791743632221203,69.5853273297129,-0.11624777693183838,-0.13754885475189915,9.805346284905744,-0.08954231106816163,0.013117638751899155,0.43151413909425784
68.618,0.8201513757824713,-0.009966473574587974,0.010488726858610086,0.5719636149402266,-0.004351488228736541,0.028609510708375054,1.2178791482747158,-0.24932191010746196,1.6392042175242247,69.77933515312861,-0.2805351979938159,-0.04265744677741552,9.80289392704629,0.08910255799381589,-0.07220213722258448,0.4196090489537099
68.721,0.8190460724409773,-0.006140102258851103,-0.0004597606769930556,0.5736947088682098,-0.010585985070751494,0.006291999517967101,1.222012510705931,-0.6065322665425588,0.3605050170778633,70.01615937563517,-0.06170523212676444,-0.1038127616264985,9.806256389410368,-0.16801393587323557,0.03202552162649849,0.44974729858963336
68.825,0.8179781906525584,-0.008824657142390856,0.008313772802156557,0.5751214534555985,-0.004875290625523733,0.023753702681178997,1.225550655333992,-0.279333576742205,1.3609869114401443,70.21888013012996,-0.23293065601586568,-0.04779829777359544,9.804116871611535,0.03671220001586567,-0.03356057422640456,0.4806017123884665
68.928,0.8170801291606591,-0.010577732274107401,-0.002097593322746612,0.5764232596044249,-0.019705945440185155,0.008766810485152961,1.2286852834303665,-1.1290675050376786,0.5023012405903023,70.39848109039534,-0.08597500912162673,-0.19323627348032635,9.804719120934468,-0.11024344687837329,0.08316250548032635,0.4225696710655331
69.032,0.8160134673696704,-0.008752047450315884,0.007508419639739471,0.5779178543454674,-0.005606509957372943,0.022371738165860137,1.2323815138991314,-0.32122935835554073,1.2818061772755311,70.61025949636323,-0.2193813352592059,-0.05496899639179699,9.804391834233043,-0.005552016740794141,-0.045533139608203016,0.45639766976695917
69.135,0.814991466152672,-0.014944918234216743,4.1818636711647346e-05,0.5792802066085911,-0.024317582655670356,0.01738362982400817,1.2356381201315425,-1.3932948541304435,0.9960086215334142,70.79684928901638,-0.17047267150859263,-0.2384230004341513,9.802619167402797,-0.0544606804914074,0.1235634164341513,0.4390270725972023
69.239,0.8137923360469461,-0.0063722681827231035,0.006760631211047106,0.5810815105087151,-0.002514879255670606,0.018410154127628798,1.240152381950029,-0.14409196733492763,1.054824131698482,71.05549743883272,-0.1805381827117396,-0.02465921535187282,9.805307077684073,-0.025251905288260407,-0.09498618464812719,0.4219817143159279
69.342,0.8127297249499861,-0.014635639962735418,0.0027939871725087963,0.5824503290936327,-0.020541154158053267,0.0215922572493431,1.2434170820337656,-1.1769214395840542,1.2371452105481155,71.24255097500682,-0.21173881294109967,-0.20138597796059474,9.802645528783296,-0.0036229070589003376,0.08652639396059474,0.4437865272167034
69.446,0.8116159089683236,-0.0029885015930774454,0.005043292174763305,0.5841620069567944,0.0010412396732049404,0.011678235948856792,1.2477252171955096,0.05965863873622416,0.6691136320274504,71.48938893734667,-0.11452585671348767,0.01021073931396558,9.806325946497328,-0.08169259928651235,-0.15378521931396558,0.4353202935026719
69.549,0.8105764578002363,-0.011400011158622157,0.008774370349373851,0.5854561095680676,-0.008210357719349916,0.02757650345972465,1.250921368775622,-0.4704188456114062,1.5800172619701356,71.67251493357118,-0.27040849375504294,-0.0804874599367244,9.802940886045272,0.002402797755042929,-0.0008714120632755951,0.39563300995472694
69.653,0.8093899129753751,-0.005599138667063728,-0.001896301654189366,0.5872418773043506,-0.01129125753814664,0.003506409727709425,1.2552996508925898,-0.6469414023310786,0.20090247864136626,71.92337202039104,-0.034387289734777886,-0.11073032903296563,9.806314563001584,-0.20490351026522213,0.015014009032965639,0.4879756529984167
69.756,0.8081934261581064,-0.012183624496189274,0.004417180538714346,0.5887745185765477,-0.014495857899088575,0.02148834150615294,1.259050352172791,-0.8305514780391517,1.2311912770383542,72.13827137396088,-0.2107199476626444,-0.14212308086356776,9.80370578574974,0.00971567566264439,-0.01580884713643224,0.4140113742502596
69.86,0.8068943694356941,-0.011736829876890054,0.013925469546805624,0.5904149428116767,-0.002498805642852208,0.03633996327422715,1.2633430096036702,-0.14317101715890604,2.082126523273628,72.38422252764573,-0.3563075848664888,-0.02448958214996305,9.800494587791615,0.09308770486648876,-0.09994163385003695,0.4220083882083845
69.963,0.8057552295484716,-0.006950474490810718,0.0033687386939556425,0.5921983219828086,-0.007211574978425073,0.013661301233590094,1.2675631144526285,-0.4131928099059044,0.7827349033415776,72.62601672459374,-0.13397221387565875,-0.07071670331101473,9.805829877872759,-0.06703205812434126,-0.015427984688985277,0.45495962612724306
70.067,0.8044826113488559,-0.015591445605591033,0.0043147738857690545,0.5937558568869603,-0.019970048222256984,0.025460095937150058,1.2713760501788216,-1.1441994798080577,1.458756043196873,72.84448184925925,-0.24966018650760774,-0.19576977809409157,9.801866811238458,0.029512650507607735,0.04262366609409157,0.4302077967615432
70.17,0.8033066028359893,-0.003855833794665085,0.004300241345440764,0.5955376917628481,-0.0010729930609427326,0.011501666836678703,1.2758881879482384,-0.061477973838842105,0.6589969671072741,73.1030083000284,-0.11279435973249018,-0.010522144912576088,9.806345686180912,-0.08820991226750984,-0.1043374390874239,0.3922282098190877
70.274,0.8022024305480111,-0.012698103418808962,0.006098050652514486,0.5968859458645912,-0.013097666560009748,0.02494496797624915,1.2792126679293463,-0.75044101535819,1.4292413851280705,73.29348697202163,-0.24460993095488243,-0.12840518292926,9.80310803218424,0.010104946954882427,0.018331414929260006,0.47203891981576085
70.377,0.8012976471803565,-0.008044004556109189,-0.004116073463600136,0.5981976534166352,-0.017816759068059147,0.0030274139595573182,1.2825341313925596,-1.0208250992012269,0.17345804272162363,73.48379281027064,-0.02968980334899128,-0.17471891141768217,9.805398554753912,-0.16652865265100875,0.02157279941768217,0.41710442124608704
70.481,0.8002279832217015,-0.010033915235175751,0.005070829656331735,0.5995905120168082,-0.009980188366687754,0.020149483751495136,1.2859728461559348,-0.5718226721567707,1.1544803783281001,73.68081665316137,-0.19759261602804817,-0.09785421466609043,9.804520932241578,-0.036912367971951826,-0.021791185333909585,0.44191112375842145
70.584,0.7989314529632942,-0.01845087509204346,0.006905508158036775,0.6010993367417542,-0.021193456178757706,0.0332217836299445,1.289691916572331,-1.2142955923382739,1.9034679898926277,73.89390369173285,-0.3257461040573846,-0.20771398744557823,9.799387397950492,0.08645530405738455,0.07849695544557822,0.4470446580495082
70.688,0.7978034198508985,-0.007239190914456903,0.0022849071547018903,0.6028698670429709,-0.00879668615795431,0.012374709440193669,1.2941756957673294,-0.5040129905519335,0.7090186236237949,74.1508053158748,-0.12135567815602755,-0.0862613833748968,9.80586971018469,-0.07964859384397247,-0.0477414646251032,0.4309907138153122
70.791,0.7962987255812152,-0.011535597346336654,0.009980113332848591,0.6047112260984239,-0.006304239960001537,0.02985014619094779,1.2988890756566056,-0.361206342745811,1.7102873945898187,74.42086209077218,-0.2926969121608186,-0.06179772968225576,9.802436358284488,0.04862029616081859,-0.02434695831774425,0.4009233537155126
70.895,0.7950464634851017,-0.007835050126417477,-0.0008945587108476968,0.6064972651661855,-0.013544409014910117,0.008081529438012446,1.3032880446607753,-0.7760374725532946,0.4630375288088452,74.67290444891997,-0.0792546964898747,-0.1328216204638526,9.805780239747456,-0.13610702351012532,0.022747852463852594,0.469366712252544
70.999,0.7935962623001883,-0.01123922701429836,0.007893054399735974,0.6082896940862426,-0.008239211602605555,0.026204207660203965,1.3078446146034977,-0.4720720513445175,1.5013905044140692,74.93397667569413,-0.2569552553303446,-0.0807732941366413,9.803300396892489,0.012878639330344555,-0.029300473863358698,0.4048451311075123
71.102,0.7924780761441182,-0.00889834050581627,-0.0031439123746447675,0.609827380643195,-0.017939238446039292,0.0058699738148426436,1.3117014163454799,-1.027842650636877,0.33632472544279085,75.15495513792841,-0.057566502609911654,-0.17591764459177428,9.80525308597889,-0.17215266539008833,0.06584387659177428,0.4507506020211114
71.206,0.7911769093534077,-0.011816390094061893,0.005887760621141232,0.6114448505842556,-0.011501130332659084,0.02376890027239818,1.31576851959352,-0.658966227691258,1.3618576692757682,75.38798298888506,-0.23307965672019554,-0.112757239386,9.803581421021057,0.022503752720195502,-0.035603056614,0.42370737097894384
71.309,0.7900990556343969,-0.00011713722931114269,0.0035379179512675676,0.6129689647127935,0.004152247976565008,0.00573424566189551,1.319647251836703,0.2379062845489109,0.328548075117814,75.61021797628077,-0.05623543902007521,0.040720309410004894,9.806754225114434,-0.1686979129799248,-0.1412224454100049,0.42532038288556784
71.413,0.7888812543653653,-0.009061174230924441,0.004187749132016044,0.6144645835112811,-0.00915150224725281,0.01774374593669647,1.3234106945792679,-0.5243424549720744,1.0166417549251112,75.82584736186887,-0.17400378549207862,-0.08973340209193109,9.80504561943408,-0.04614375050792138,-0.02991199790806892,0.4461722525659191
71.516,0.7876396476446589,-0.0175666894494858,0.005884078590113334,0.6158575927104645,-0.020436117556421936,0.030911147687576565,1.3269005114616095,-1.170903285616182,1.7710783024037113,76.02579914050054,-0.30309735178547814,-0.2003073201365896,9.800268260248815,0.07337818378547814,0.0663044721365896,0.45573542775118625
71.62,0.7865909841683453,-0.006001936238902341,0.007030060727583677,0.6174051980932982,-0.0007614757753337346,0.01847186848421522,1.3309397335489643,-0.04362934812807507,1.0583601038662493,76.257229518622,-0.18114331249858995,-0.007466518200819144,9.805324081918098,-0.06771911950141005,-0.08346398579918086,0.42675052608190356
71.723,0.7847704997249165,-0.011716519479027092,0.00036405048825747453,0.6196756033603746,-0.01794137712083886,0.015092847725720645,1.3366317377589565,-1.0279651876766431,0.8647564755174161,76.58335733682524,-0.14800993819952907,-0.17592160715528193,9.804304852784316,-0.01470780580047093,-0.28351672884471807,0.6909896352156846
71.827,0.7833798450946972,-0.007505446317010674,0.011667179893468696,0.6213884159592323,0.0027415184901764668,0.02761077001722647,1.341217557791769,0.15707743894418918,1.5819805910934321,76.84610547031195,-0.2707444179560419,0.02687579045757299,9.803225191335397,0.0314536179560419,-0.132163742457573,0.42884941666460463
71.93,0.7822327694979466,-0.012776319251348806,0.004084111832309104,0.6228418579547308,-0.014904859345505825,0.022306554905185804,1.3447169045897542,-0.8539855347336063,1.2780714515439906,77.04660327288912,-0.21874224252066166,-0.14613018008581063,9.803471160859562,-0.04926345347933836,0.012127332085810627,0.45253252714043946
72.034,0.7812046706071792,-0.019120377940690856,-0.001250492207969868,0.623980857108751,-0.03144715254591038,0.021909471731284127,1.3476020653097334,-1.8017891185847466,1.2553202615637653,77.21191080536084,-0.21484899949260267,-0.3082773912797799,9.799798669230036,-0.014870168507397336,0.13598801527977986,0.39877522676996335
72.137,0.7798535621429638,-0.009198710631771202,0.004982471504156853,0.6258745723492477,-0.008112087750660586,0.019286870177460266,1.3525143728460944,-0.46478839115262494,1.1050562611852064,77.49336529486465,-0.18913460950016014,-0.07953957604593138,9.8048534183501,-0.035798742499839886,-0.035320007954068616,0.4320070056499006
72.241,0.778442834925043,-0.01722311790787593,0.01017916016467735,0.6273966063517843,-0.014052008808069972,0.037468006014478604,1.3564701807343431,-0.8051207983830678,2.1467586114004082,77.72001639142586,-0.36736276711043914,-0.1377067986680841,9.799149475079027,0.1280719671104391,0.0467762946680841,0.41856768492097274
72.344,0.7776366508173204,-0.010263499540420242,0.001607420688824014,0.6286281222483879,-0.013943713265004022,0.015404436599088,1.3595557341227444,-0.7989159208253117,0.8826092029046018,77.89680557804354,-0.15106533501176753,-0.1367253410062035,9.804883193882757,-0.05951056898823251,-0.025992402993796487,0.42719141411724415
72.448,0.7748736442889871,-0.02222149842511865,-0.0004307731496413642,0.6317253001333255,-0.0350022610838109,0.02741160870461192,1.3674766074273292,-2.0054818335173716,1.5705694884383328,78.35063818845408,-0.26879198206526245,-0.34306815553690156,9.797311065340017,0.02950118206526242,0.10856317153690156,0.3342614066599836
72.551,0.7733985263123209,-0.011875064719645317,0.001726314914747185,0.6338065337093408,-0.016183263927679388,0.01772417401993513,1.3729037504645618,-0.9272327218023368,1.015520366697705,78.66159057930132,-0.17381187388581884,-0.1586774145942229,9.804175636461945,-0.05112147811418119,-0.0566843054057771,0.39439825953805396
72.655,0.7724070623939081,-0.009807196475891655,-0.009348293109096052,0.6349832740137672,-0.02702565823248185,-0.0019865650899156145,1.3761514969108335,-1.5484561552841982,-0.1138217953801916,78.84767274360131,0.019482231022551116,-0.26500784487449486,9.803399424935687,-0.15348507902255112,0.06878938887449484,0.4334609990643141
72.758,0.7714786006843949,-0.006286359102808949,0.0008682040903927588,0.6362236215332907,-0.008595319787886292,0.00933879780655355,1.3791800850236056,-0.4924755474111665,0.5350737000415491,79.02119806034663,-0.09158425885012578,-0.084289587512961,9.806210103244156,-0.07113348514987422,0.017288163512961002,0.4402219527558433
72.862,0.7701410395377577,-0.009227065048598259,0.009803426642072205,0.6377315527056538,-0.001708991780579284,0.026872057379818317,1.3832263553380564,-0.09791801624974063,1.5396554746969668,79.25303227213374,-0.2635025511919962,-0.016754023310493485,9.803445042851937,0.05292664719199619,-0.059819032689506516,0.4669160931480629
72.965,0.7688624678889914,-0.014017068058233195,0.0011671374416810008,0.6392594661519629,-0.020067434963190578,0.019717100760595466,1.3870364165420805,-1.1497793290440868,1.1297066578163055,79.47133269881085,-0.19335307846953606,-0.19674987540009975,9.803119558261871,-0.03636608953046394,-0.00904021259990026,0.3332387297381292
73.069,0.7687489918988755,-0.007601187584636571,0.010242138396476693,0.6394234184035125,0.001411774100265572,0.025470775815486516,1.3876495121560761,0.08088869757109639,1.459367955151265,79.50646048993079,-0.24976489011573824,0.013840773115274763,9.80380920523574,0.02004572211573824,-0.15741525311527477,0.5000526427642598
73.172,0.767328045703516,-0.014380145002383854,0.003778329660868464,0.6410823706291625,-0.01723004944715222,0.024238524836060284,1.3917913507555715,-0.9872091141235395,1.3887651747292797,79.74377036110624,-0.23768393801189602,-0.16891710225420373,9.802664043930976,-0.03510757398810399,0.07798659825420372,0.5251268840690244
73.276,0.7663561088698053,-0.020104708921613486,0.002153577052156564,0.6420977162262679,-0.028064702501231845,0.029123305957284268,1.3943967313677572,-1.6079890066108298,1.6686425168205963,79.8930476742097,-0.28557188875514977,-0.2750777118418177,9.798981066866121,0.012780376755149758,0.040572727841817674,0.5096665971338794
73.379,0.7652835249888389,-0.011325456710163436,0.008039120690955357,0.6435434973251455,-0.006989905992927098,0.02688449974345371,1.3983059465084093,-0.40049211258792383,1.5403683696204422,80.1170292029777,-0.26362452937782704,-0.06852467839460344,9.803216588240884,-0.03309606262217296,-0.0032625616053965634,0.4384296517591153
73.483,0.7642643172720361,0.00040863885765290596,0.004575627522512879,0.6448867730010963,0.0065263223286109754,0.006466971177244237,1.401789160007418,0.37393072517140047,0.3705301546888442,80.31660263561389,-0.06342114426956111,0.06400185037077384,9.806586078835421,-0.1423689437304389,-0.09271674637077384,0.3584871051645795
73.586,0.7642141319332894,-0.006418284808800293,0.0024748571404684533,0.6449259191997918,-0.006618218593476027,0.012061570516261487,1.4018527114747534,-0.37919599330118425,0.6910770848812128,80.32024386647409,-0.11828495395920408,-0.06489967479620605,9.806071879293881,-0.14493492604079594,-0.11217551720379394,0.8088680087061189
73.69,0.7619685861377206,-0.009478780444073576,0.01027233435358039,0.6474631306935588,-0.0011435966927171668,0.027932345959033867,1.4086518546847813,-0.06552326395781294,1.6004055353519406,80.7098060767137,-0.27389689712331644,-0.011210875446761609,9.803168049463293,0.07289262512331643,-0.007932388553238391,0.6011959345367082
73.793,0.7598179893165683,-0.011194583034594467,0.0010536055409902034,0.6500386098817305,-0.01564460227880258,0.016155622046893938,1.4152522730558947,-0.8963696827361379,0.9256489586955269,81.08798219239912,-0.15843129333387454,-0.1534003347686169,9.804520226027659,-0.06650205866612549,-0.028460673231383127,0.5089132539723398
73.897,0.7578243429915487,-0.019711142946892888,0.004560799461450885,0.652144872801609,-0.023941592221317132,0.032627399923757475,1.420782230658883,-1.3717521891047133,1.8694123121167672,81.40482542393664,-0.3199201423185278,-0.23464781253369082,9.79897140043852,-0.03901605768147226,-0.023786251466309194,0.37567341556148115
74.0,0.75645432674857,-0.008350338627072438,0.007617074916968243,0.6539488539311697,-0.002671620977728619,0.022447212365901213,1.4256651915010097,-0.15307260648246437,1.2861305304000108,81.68459847171815,-0.2201213248942538,-0.026193955104514263,9.804494351012845,-0.05745600310574622,-0.05995073289548575,0.45629515298715617
74.104,0.7555607799657544,-0.005164081215410948,-0.0024963952015514285,0.6550534390824454,-0.011074374954328694,0.0029931461777642707,1.4285186375094143,-0.634514945628418,0.17149464345160678,81.84808888506818,-0.029353740735632794,-0.10860368875585057,9.806354704817354,-0.11900655526436721,0.017673184755850557,0.4448631671826462
74.208,0.7543719430090037,-0.006394133289622193,0.006086023671885569,0.656387878450052,-0.0016577820203869604,0.017577219265758344,1.4320948448557733,-0.09498391312084342,1.0071004795039928,82.05299047267823,-0.17237091310561586,-0.016255349388578727,9.805471586411915,-0.08127733489438416,-0.02681699461142128,0.6419647415880849
74.311,0.75256962676628,-0.016422724360876047,0.003518610538099149,0.6582984660268547,-0.020094528468353474,0.02692135914925656,1.4370884787876126,-1.1513316725421365,1.5424802580083052,82.33910462140592,-0.2639858787645768,-0.196982374677,9.80146715547624,0.04383834276457679,0.086908606677,0.34924858052375995
74.415,0.7511312489700571,-0.010463609304688449,-0.004057521216876517,0.6600574946340475,-0.021077670771656617,0.007717782143229514,1.441819927809601,-1.2076615771821773,0.4421963440084821,82.61019668134718,-0.0756875380959769,-0.20668725618319092,9.804529604968739,-0.19710397390402312,0.0008971681831909106,0.50890387503126
74.518,0.7495408088773655,-0.016167181095085,0.005034008511465693,0.6617415332599353,-0.017581770220872265,0.028947422631094233,1.4462771613081338,-1.0073612300247738,1.6585651445431844,82.86557734911743,-0.28384772801172076,-0.17234330438811984,9.8013762938036,0.02062784801172074,0.03355464038811984,0.43548413019640186
74.622,0.7483645010285775,-0.003048585522259675,0.005644760680176629,0.6632566746014887,0.0029251764704341684,0.012492991382212638,1.4503787055547246,0.1676002660868525,0.7157956796940929,83.10057852393324,-0.12251557949421302,0.028684926091351322,9.806192742741514,-0.064131244505787,-0.10047216609135132,0.291879017258486
74.725,0.7487183023712933,-0.0104243955126607,0.004717616723892415,0.6627895440974386,-0.009358474697850136,0.020884210744037426,1.4490941161666906,-0.536201102866781,1.1965771340951132,83.02697697359162,-0.20479656699662396,-0.09175720808852403,9.804432058049574,-0.15413963300337608,-0.25282154391147604,0.489858157950426
74.829,0.7467670376676709,-0.01430321078746664,0.012763737824927958,0.6648093686245384,-0.004394629465504557,0.03809010431090443,1.4547206573735416,-0.25179372089724394,2.1824022182278866,83.34935403800061,-0.3734593317340018,-0.043066731732678554,9.799791956167164,0.043238027734001816,-0.02872050826732145,0.475354995832836
74.932,0.7457919960125174,-0.016698288461908177,0.0023043661242480172,0.6659655815001804,-0.02184658353262541,0.025680949112831322,1.4575480800010419,-1.2517170331994405,1.4714099980554707,83.51135342145618,-0.25182538554476136,-0.21416176207805784,9.801426820359312,-0.04010939045523865,-0.015557405921942158,0.44021941964068745
75.036,0.7445942222569136,-0.009973590346858598,0.005933418006726613,0.6674164863321645,-0.006934190152884069,0.02215086616569942,1.4615121127503024,-0.3972998301014322,1.2691511438537093,83.73847576784043,-0.21721578025610683,-0.06798637532349201,9.804358426617119,-0.03164665174389317,-0.008586680676507988,0.5330041333828799
75.139,0.7435441790318709,-0.0072597085518133495,0.01820061147415327,0.6683996470686762,0.013544309948349076,0.03677898192146659,1.464704508483731,0.7760317964574561,2.1072804388879907,83.92138656990147,-0.3606101637004083,0.1327351608670612,9.79946889820594,0.07346120370040832,-0.24280892886706118,0.4373915257940606
75.243,0.7424788124277202,-0.009211406104088082,0.0069233688361282665,0.6697704308622968,-0.0044055537437705525,0.022621893623169426,1.4678691250382725,-0.25241963593611194,1.2961390292015185,84.10270574225393,-0.22183398903944607,-0.0431940711624985,9.804395593483735,0.025615533039446053,-0.0716655128375015,0.47553717451626554
75.346,0.7400116458516847,-0.016037125177153198,0.004617699340349467,0.672386980445588,-0.017533527610466487,0.028404430273763194,1.4748617503691852,-1.004597132055829,1.6274539741602565,84.50335366143149,-0.27852479132763147,-0.1718731371265589,9.801537255214111,-0.008624168672368537,0.02351284112655891,0.4879671447858893
75.45,0.7393385656333041,-0.01130835734453895,-0.005454841633800457,0.6732167935548005,-0.02406893213079406,0.0071600637435695145,1.4771583655537484,-1.3790482284813192,0.41024143355117376,84.63494001867262,-0.070218145156358,-0.23601517751929788,9.803908161956198,-0.17864428684364198,0.03979672151929786,0.41859481404380183
75.553,0.7377316050543058,-0.015851887278704287,0.0024554504639776463,0.6749035244660676,-0.020082128174621752,0.02502252714251353,1.4816520301811569,-1.1506211880465864,1.433685198017573,84.89240803637037,-0.24537031632493572,-0.19687054447519614,9.801953090919413,-0.041778643675064286,-0.06634933552480388,0.4301215170805879
75.657,0.7358794008621437,-0.023174140703460265,0.00364415730469714,0.6767061302419001,-0.029198544019925596,0.036735748760238954,1.4865287779416745,-1.6729533402686854,2.104803361214638,85.17182510079789,-0.36018646248169367,-0.2861162669872207,9.796206010186301,0.015607710481693626,-0.0010326930127793066,0.42629696581369814
75.76,0.73519695190705,-0.01368725196580685,-0.0031693033309632534,0.6777079434067477,-0.024426161573281653,0.013892241313832846,1.4892944729165096,-1.3995159678536695,0.7959667952598999,85.3302877502765,-0.13623682830930867,-0.2395004337985509,9.80312848374551,-0.12219723569069135,-0.042862710201449106,0.4193744922544891
75.864,0.7336371504589699,-0.01767372747677189,0.004905920024162656,0.679293826537704,-0.019277668086167023,0.031214707110246244,1.4936104872424667,-1.1045290201914095,1.7884709761541118,85.57757715547183,-0.3060729228823827,-0.18895229039795436,9.80040128759183,0.0045665148823826884,-0.06469595760204566,0.41253005640817086
75.967,0.7319543505668584,-0.012902887741232286,0.012948235816917246,0.6811084255560307,-0.0012511801016612256,0.0365396966355669,1.498838943469229,-0.07168733923593751,2.0935704019063572,85.87714563063422,-0.3582650695844374,-0.012262129611493255,9.800446152093947,0.032829581584437384,-0.16959887838850676,0.4029135599060538
76.071,0.7308258254058999,-0.01723511053276454,0.0024058626490736255,0.6823421251173213,-0.02191825175878935,0.027040312103005285,1.5019098230051326,-1.2558233200838234,1.549295760218722,86.05309406743459,-0.26515202579512076,-0.2148565113821385,9.801060150959866,-0.031568566204879245,-0.014862656617861514,0.39272792904013265
76.174,0.7291255910750876,-0.006572596182971189,0.010642161796980805,0.6842656047260498,0.004981151865365703,0.024516203838026062,1.507400178322535,0.28539897899917205,1.4046750096013239,86.36766825514894,-0.2404063268772768,0.048835274576428486,9.803931298920572,-0.0371710011227232,-0.2402679145764285,0.45207238907942937
76.278,0.7283812991395734,-0.013526465722617032,0.0042579744471109675,0.6850252458431073,-0.013875899863765877,0.024737321795039968,1.5092941927690746,-0.7950304991399387,1.4173441353127758,86.47618728927247,-0.24257417313620347,-0.13603495025983187,9.80305571048309,-0.04457478686379654,-0.05539768974016812,0.40030400151691126
76.381,0.7267253917075714,-0.0059924458886240085,-0.0042317567777523405,0.6868889196036885,-0.014523760920593813,0.0020816406639647665,1.5144349611459125,-0.8321502034070646,0.11926922450799156,86.7707316207196,-0.020414635247950653,-0.14242920729711006,9.805944429965756,-0.16623218875204937,-0.005931088702889942,0.3495571220342448
76.485,0.7260626127054177,-0.014228456117380906,-0.0028731083103644495,0.6874753658979608,-0.024617284438279485,0.015391920844045042,1.5160237264433254,-1.410466501386494,0.8818921029632207,86.8617611668982,-0.15094260755307956,-0.2413687308984758,9.802867257336985,-0.14577798444692044,-0.15106818110152423,0.4100640866630165
76.588,0.7237708868293571,-0.019375972400289806,0.004115400514154462,0.6897559992855427,-0.022384114220137346,0.03269242383943647,1.5223119861181111,-1.2825152729526401,1.873137908052588,87.22205190674573,-0.320557491787608,-0.21938538564693116,9.799304156266576,-0.057521972212392025,-0.015119598353068836,0.30833923573342403
76.692,0.7224320994123309,-0.0076366632518283266,0.0082460382728278,0.69135052322673,0.000367957358921878,0.022475519952197043,1.5268381588406674,0.021082403707004014,1.2877524356229644,87.48138250109545,-0.2203988673664388,0.003607646346223764,9.804522442431933,-0.061964276633561216,-0.08018070234622376,0.642913885568067
76.795,0.7208396600989158,-0.016116116259878372,0.005112234454839475,0.6928956056175105,-0.016157614297411978,0.02970814471156004,1.5310292138423638,-0.9257631062419431,1.7021513091362865,87.72151226439985,-0.2913049210888766,-0.1583809116472118,9.801393060671284,-0.02934475091112343,0.00044898364721179806,0.4833255233287179
76.899,0.7195779456465567,-0.00506346371825537,0.005655936129240448,0.6943701835914017,0.0005675785326144241,0.015172192352648125,1.5351485582142173,0.03251985446103485,0.8693025877674008,87.95753331126801,-0.14878798186376246,0.005565601721030447,9.80586967894895,-0.11443189813623755,-0.11085355372103047,0.4453481930510499
77.002,0.7161923865098473,0.0028709683214735477,0.014410221955592004,0.6977482128600669,0.024227466480564848,0.0166353237233688,1.5449103007163187,1.388131577631036,0.9531338401828865,88.51683995733191,-0.163135095341028,0.23754264870734054,9.802765397106736,-0.03308336065897202,-0.012609296707340512,0.3814510508932649
77.106,0.7149065756775306,-0.005832197467499061,0.007675636946326548,0.6991535297223319,0.0023943851326435734,0.019131096513640707,1.5485395638461505,0.13718816262934855,1.0961310876890558,88.72478141741371,-0.18760721901607688,0.02347741554985014,9.80517727235628,-0.11868500498392312,-0.25319658354985014,0.3981824396437208
77.209,0.7134297328608176,-0.014469837631218162,0.0003959561122949695,0.7005772500501467,-0.02009734611863176,0.020840960503478827,1.5524085778226644,-1.1514931120112262,1.19409907784818,88.94645958914508,-0.20437250419037184,-0.19703860661287037,9.80289022008484,-0.044489927809628155,-0.003965665387129641,0.44354183591515906
77.313,0.7118699871372288,-0.022870486675151992,-0.0020354515206846956,0.7019358369463624,-0.03544167732323571,0.02921342978106924,1.5562257189477506,-2.030658529485923,1.6738062315570559,89.16516566541834,-0.2864553571367753,-0.34735549464307214,9.796659455585303,0.004092213136775269,0.03149163864307214,0.41148607241469826
77.416,0.7106615350018856,-0.012975386973220529,0.0038175320031216043,0.7034040435276614,-0.013075720963090447,0.023682039206162134,1.5603768606352304,-0.7491836252758187,1.3568808967764368,89.40300856427174,-0.23222804998394284,-0.12819398490994025,9.80341192825404,-0.045349278016057176,-0.09195355109005976,0.3999477837459615
77.52,0.7094495932975721,-0.019533995784569626,-0.005369705837980908,0.704464948622578,-0.03529662865884095,0.019904273681299038,1.5633941881281108,-2.0223478531920938,1.1404308762117572,89.57588869502258,-0.1951883231081864,-0.34601361244614487,9.79895020390063,-0.0393166608918136,0.07322210044614486,0.3996236920993699
77.624,0.70794582345162,-0.019455364015625427,0.003822098413504451,0.7059883791055944,-0.02216377224748758,0.03288812750099107,1.5676630270265224,-1.2698906078702215,1.8843509018949236,89.82047514732284,-0.32247572588646944,-0.21722478785616148,9.799289351670092,0.040112581886469434,-0.07949580414383853,0.48542923232990987
77.727,0.706460363028325,-0.0083366790579497,0.006005784804435999,0.7076780241049279,-0.003279423441663698,0.020286458373955502,1.5724851856068072,-0.18789712244359683,1.162328446095477,90.09676448211596,-0.1989356516088287,-0.03215463044595318,9.80492935651552,-0.0977849403911713,-0.12099148155404682,0.41278780348447874
77.831,0.7052789397532866,-0.015243117742807712,0.0014159203529530216,0.7087646010287991,-0.019500860567412775,0.023606994738152726,1.5754961826271974,-1.1173170073858438,1.352581165483693,90.26928190351077,-0.23149229460113982,-0.1911795349839454,9.802403312603682,-0.08437156139886018,-0.19168574501605457,0.37702731939631917
77.934,0.7040327418031541,-0.024283184122285327,0.0019200235083175067,0.7097496311712632,-0.03149381148992567,0.03718204757883721,1.5782980329570737,-1.80446247915336,2.130374399921993,90.42981610224003,-0.364560325996577,-0.3085953140110015,9.79536184634747,0.063053917996577,0.05973288201100149,0.5228574496525304
78.038,0.7027306468289247,-0.011307511808312106,0.002958099208658995,0.7113599847005578,-0.011686384423524508,0.020246299968599394,1.58288265444582,-0.6695805052353799,1.1600275389565964,90.69249556421019,-0.19854189900360938,-0.11458227497713264,9.804320528042783,-0.11732195699639061,-0.13428015702286736,0.3942533679572158
78.141,0.7014935766271975,-0.019230280530651973,-0.0031540705544665752,0.7124092995606054,-0.031487327391019816,0.022976562485079708,1.5858747944899623,-1.8040909676521093,1.3164600581136858,90.86393256045162,-0.22531132258685144,-0.30866370298837653,9.799551547207233,-0.04269437341314858,-0.05984412901162345,0.39902234879276577
78.245,0.700110885960946,-0.013345805102788686,0.006478625253062654,0.7138800069059001,-0.009441040024635911,0.028129828658417743,1.5901384581119922,-0.5409317476257245,1.6117204605534874,91.10822249125741,-0.2758328491246805,-0.09255027507549224,9.802683290095993,-0.006530294875319531,-0.10845399692450777,0.4389629499040062
78.348,0.6986950239081108,-0.017956011275387283,-0.00278648011555215,0.7151888427217586,-0.02908827783904449,0.02179180298331388,1.593809512097197,-1.6666355534811719,1.2485783389244818,91.31855839097432,-0.21369529755442457,-0.28516079113564563,9.800523794318446,-0.03995295044557545,0.00279764713564562,0.4411224456815539
78.452,0.6974251389772089,-0.02396867118295481,-0.007402782763472967,0.716218456290887,-0.04406368097837592,0.02401014260854437,1.5968541420462756,-2.5246629498718267,1.3756798369768215,91.49300283723566,-0.23544484522705333,-0.43186818117869624,9.7946569413605,-0.01341758677294666,0.020288005178696222,0.4134885866395006
78.555,0.695967169269419,-0.01674697694775457,6.289490162406909e-05,0.7178782864152213,-0.023229243793355444,0.024134470677782783,1.601508573554435,-1.3309376306397294,1.3828033106191928,91.75968211868589,-0.23666377734507477,-0.227722369750141,9.80149895571122,-0.045699366654925244,0.002789017750140982,0.48800544428877934
78.659,0.6938569991494159,-0.026513186919506097,-0.0031629373014902,0.7196176147638172,-0.04138033446376007,0.03377588190470501,1.6065433548401105,-2.3709185196131983,1.9352154824718855,92.04815383712655,-0.33117709708938065,-0.40546974244382344,9.793016134895623,0.020099057089380645,0.08003425444382345,0.41991520910437785
78.762,0.6926660770983903,-0.014047343941629355,0.00033911399788101533,0.7211215312046985,-0.018976368688410513,0.020730954770714714,1.6108483938703828,-1.087265836330128,1.1877962136385523,92.29481440420025,-0.2032939110179968,-0.1860500919064168,9.803127355545506,-0.07428341698200322,-0.1298137640935832,0.42416143645449544
78.866,0.6908589486536336,-0.021101966281056036,-0.0002579245466929237,0.7226815021565155,-0.02954748339238243,0.030148189226127234,1.6153685719129045,-1.6929460936164056,1.7273640026188701,92.55380152868443,-0.29561850505900383,-0.28959834726425315,9.798264718649344,-0.001102086940996172,-0.007122244735746852,0.39073754535065675
